<Bundle xmlns="http://hl7.org/fhir">
  <id value="4e75e201-cf27-4e08-8f93-62af00ff786a"/>
  <meta>
    <profile value="https://fhir.gkvsv.de/StructureDefinition/GKVSV_PR_TA7_Sammelrechnung_Bundle|1.1.0"/>
    <tag>
      <display value="Beispiel der TA7/eAbrechnungsdaten."/>
    </tag>
    <tag>
      <display value="ACHTUNG! Der fachlich korrekte Inhalt der Beispielinstanz kann nicht gewährleistet werden. Wir sind jederzeit dankbar für Hinweise auf Fehler oder für Verbesserungsvorschläge."/>
    </tag>
  </meta>
  <identifier>
    <extension url="https://fhir.gkvsv.de/StructureDefinition/GKVSV_EX_ERP_TA7_Dateinummer">
      <valueString value="00001"/>
    </extension>
    <system value="https://fhir.gkvsv.de/NamingSystem/GKVSV_NS_Dateiname"/>
    <value value="ARZFHR22001"/>
  </identifier>
  <type value="document"/>
  <timestamp value="2022-06-02T10:00:00Z"/>
  <entry>
    <fullUrl value="urn:uuid:5685a190-bbb5-4d60-ae49-1663826d4c8f"/>
    <resource>
      <Composition>
        <id value="5685a190-bbb5-4d60-ae49-1663826d4c8f"/>
        <meta>
          <profile value="https://fhir.gkvsv.de/StructureDefinition/GKVSV_PR_TA7_Sammelrechnung_Composition|1.1.0"/>
        </meta>
        <extension url="https://fhir.gkvsv.de/StructureDefinition/GKVSV_EX_TA7_IK_Empfaenger">
          <valueIdentifier>
            <system value="http://fhir.de/NamingSystem/arge-ik/iknr"/>
            <value value="101575519"/>
          </valueIdentifier>
        </extension>
        <extension url="https://fhir.gkvsv.de/StructureDefinition/GKVSV_EX_TA7_IK_Kostentraeger">
          <valueIdentifier>
            <system value="http://fhir.de/NamingSystem/arge-ik/iknr"/>
            <value value="101575519"/>
          </valueIdentifier>
        </extension>
        <status value="final"/>
        <type>
          <coding>
            <system value="https://fhir.gkvsv.de/CodeSystem/GKVSV_CS_ERP_TA7"/>
            <code value="SR"/>
            <display value="Sammelrechnung"/>
          </coding>
        </type>
        <date value="2022-05-31"/>
        <author>
          <identifier>
            <system value="http://fhir.de/NamingSystem/arge-ik/iknr"/>
            <value value="308400023"/>
          </identifier>
        </author>
        <title value="elektronische Sammelrechnung"/>
        <section>
          <code>
            <coding>
              <system value="https://fhir.gkvsv.de/CodeSystem/GKVSV_CS_ERP_TA7"/>
              <code value="LSR"/>
              <display value="Liste der Sammelrechnungen"/>
            </coding>
          </code>
          <entry>
            <reference value="urn:uuid:b62abd3f-5b0e-4dbc-a624-1c63660b7e3c"/>
          </entry>
        </section>
        <section>
          <code>
            <coding>
              <system value="https://fhir.gkvsv.de/CodeSystem/GKVSV_CS_ERP_TA7"/>
              <code value="R"/>
              <display value="Rechnungen"/>
            </coding>
          </code>
          <entry>
            <reference value="urn:uuid:6124507a-94b6-4382-8cf0-3c74c61b09df"/>
          </entry>
        </section>
      </Composition>
    </resource>
  </entry>
  <entry>
    <fullUrl value="urn:uuid:b62abd3f-5b0e-4dbc-a624-1c63660b7e3c"/>
    <resource>
      <List>
        <id value="b62abd3f-5b0e-4dbc-a624-1c63660b7e3c"/>
        <meta>
          <profile value="https://fhir.gkvsv.de/StructureDefinition/GKVSV_PR_TA7_Sammelrechnung_List|1.1.0"/>
        </meta>
        <status value="current"/>
        <mode value="working"/>
        <entry>
          <item>
            <reference value="Bundle/4e75e201-cf27-4e08-8f93-62af00ff786a"/>
          </item>
        </entry>
      </List>
    </resource>
  </entry>
  <entry>
    <fullUrl value="urn:uuid:6124507a-94b6-4382-8cf0-3c74c61b09df"/>
    <resource>
      <Invoice>
        <id value="6124507a-94b6-4382-8cf0-3c74c61b09df"/>
        <meta>
          <profile value="https://fhir.gkvsv.de/StructureDefinition/GKVSV_PR_TA7_Rechnung|1.1.0"/>
        </meta>
        <extension url="https://fhir.gkvsv.de/StructureDefinition/GKVSV_EX_ERP_TA7_Abrechnungszeitraum">
          <valueDateTime value="2022-05-31"/>
        </extension>
        <extension url="https://fhir.gkvsv.de/StructureDefinition/GKVSV_EX_ERP_RezeptBundleReferenz">
          <extension url="lineItem">
            <valueReference>
              <reference value="urn:uuid:87f4ae53-6e5e-4a62-ab43-aaa87512b93e"/>
            </valueReference>
          </extension>
          <extension url="lineItem">
            <valueReference>
              <reference value="urn:uuid:e5c55b6e-215e-4052-8e21-5bbd9ba7d5af"/>
            </valueReference>
          </extension>
          <extension url="lineItem">
            <valueReference>
              <reference value="urn:uuid:ebf62e86-8a28-4d90-8eeb-abf2e00b8998"/>
            </valueReference>
          </extension>
          <extension url="lineItem">
            <valueReference>
              <reference value="urn:uuid:7d9c7d31-3890-43d8-ade8-4a424597d11c"/>
            </valueReference>
          </extension>
          <extension url="lineItem">
            <valueReference>
              <reference value="urn:uuid:7bcd654b-f581-44e7-9393-d725ed34c813"/>
            </valueReference>
          </extension>
        </extension>
        <identifier>
          <system value="https://fhir.gkvsv.de/NamingSystem/GKVSV_NS_Sammelrechnungsnummer"/>
          <value value="104212506-01-020622"/>
        </identifier>
        <status value="issued"/>
        <type>
          <coding>
            <system value="https://fhir.gkvsv.de/CodeSystem/GKVSV_CS_ERP_Rechnungsart"/>
            <code value="6"/>
          </coding>
        </type>
        <recipient>
          <identifier>
            <system value="http://fhir.de/NamingSystem/arge-ik/iknr"/>
            <value value="101575519"/>
          </identifier>
        </recipient>
        <date value="2022-06-02"/>
      </Invoice>
    </resource>
  </entry>
  <entry>
    <fullUrl value="urn:uuid:87f4ae53-6e5e-4a62-ab43-aaa87512b93e"/>
    <resource>
      <Bundle>
        <id value="87f4ae53-6e5e-4a62-ab43-aaa87512b93e"/>
        <meta>
          <profile value="https://fhir.gkvsv.de/StructureDefinition/GKVSV_PR_TA7_RezeptBundle|1.1.0"/>
        </meta>
        <type value="collection"/>
        <entry>
          <link>
            <relation value="item"/>
            <url value="https://fhir.kbv.de/StructureDefinition/KBV_PR_ERP_Bundle"/>
          </link>
          <fullUrl value="urn:uuid:ec4445d8-7020-4977-b515-0e7afa928c1d"/>
          <resource>
            <Binary>
              <id value="ec4445d8-7020-4977-b515-0e7afa928c1d"/>
              <meta>
                <profile value="https://gematik.de/fhir/StructureDefinition/ErxBinary"/>
              </meta>
              <contentType value="application/pkcs7-mime"/>
              <data value="VmVyb3JkbnVuZ3NkYXRlbiBCZWlzcGllbCBFcnN0ZWxsdW5nIEJlaXNwaWVsIGVBYnJlY2hudW5nc2RhdGVu"/>
            </Binary>
          </resource>
        </entry>
        <entry>
          <link>
            <relation value="item"/>
            <url value="https://gematik.de/fhir/StructureDefinition/ErxReceipt"/>
          </link>
          <fullUrl value="urn:uuid:6a795211-3049-40fc-9844-7c22c280a1ee"/>
          <resource>
            <Binary>
              <id value="6a795211-3049-40fc-9844-7c22c280a1ee" />
              <meta>
                <profile value="https://gematik.de/fhir/StructureDefinition/ErxBinary" />
              </meta>
              <contentType value="application/pkcs7-mime" />
              <data value="UXVpdHR1bmdzLUJlaXNwaWVsIEVyc3RlbGx1bmcgQmVpc3BpZWwgZUFicmVjaG51bmdzZGF0ZW4=" />
            </Binary>
          </resource>
        </entry>
        <entry>
          <link>
            <relation value="item"/>
            <url value="http://fhir.abda.de/eRezeptAbgabedaten/StructureDefinition/DAV-PR-ERP-AbgabedatenBundle"/>
          </link>
          <fullUrl value="urn:uuid:19e4b1f3-e25c-481f-bb6e-5fe6c748f5c1"/>
          <resource>
            <Binary>
              <id value="19e4b1f3-e25c-481f-bb6e-5fe6c748f5c1"/>
              <meta>
                <profile value="https://gematik.de/fhir/StructureDefinition/ErxBinary"/>
              </meta>
              <contentType value="application/pkcs7-mime"/>
              <data value="ZUFiZ2FiZWRhdGVuIEJlaXNwaWVsIEVyc3RlbGx1bmcgQmVpc3BpZWwgZUFicmVjaG51bmdzZGF0ZW4="/>
            </Binary>
          </resource>
        </entry>
        <entry>
          <link>
            <relation value="item"/>
            <url value="https://fhir.gkvsv.de/StructureDefinition/GKVSV_PR_ERP_eAbrechnungsdaten"/>
          </link>
          <fullUrl value="urn:uuid:5d547f8c-50d2-4b0e-b93a-c02e2fa32c90"/>
          <resource>
            <Invoice>
              <id value="5d547f8c-50d2-4b0e-b93a-c02e2fa32c90"/>
              <meta>
                <profile value="https://fhir.gkvsv.de/StructureDefinition/GKVSV_PR_ERP_eAbrechnungsdaten|1.1.0"/>
              </meta>
              <extension url="https://fhir.gkvsv.de/StructureDefinition/GKVSV_EX_ERP_Irrlaeufer">
                <valueBoolean value="false"/>
              </extension>
              <identifier>
                <system value="https://gematik.de/fhir/NamingSystem/PrescriptionID"/>
                <value value="160.100.000.000.021.76"/>
              </identifier>
              <identifier>
                <system value="https://fhir.gkvsv.de/NamingSystem/GKVSV_NS_Belegnummer"/>
                <value value="2105000001011234561"/>
              </identifier>
              <status value="issued"/>
              <issuer>
                <extension url="https://fhir.gkvsv.de/StructureDefinition/GKVSV_EX_ERP_LE_Sitz">
                  <valueCoding>
                    <system value="https://fhir.gkvsv.de/CodeSystem/GKVSV_CS_ERP_Leistungserbringer_Sitz"/>
                    <code value="1"/>
                  </valueCoding>
                </extension>
                <identifier>
                  <type>
                    <coding>
                      <system value="https://fhir.gkvsv.de/CodeSystem/GKVSV_CS_ERP_Leistungserbringertyp"/>
                      <code value="A"/>
                    </coding>
                  </type>
                  <system value="http://fhir.de/NamingSystem/arge-ik/iknr"/>
                  <value value="308412345"/>
                </identifier>
              </issuer>
              <lineItem>
                <extension url="https://fhir.gkvsv.de/StructureDefinition/GKVSV_EX_ERP_Positionstyp">
                  <valueCodeableConcept>
                    <coding>
                      <system value="https://fhir.gkvsv.de/CodeSystem/GKVSV_CS_ERP_Positionstyp"/>
                      <code value="1"/>
                      <display value="übrige Position"/>
                    </coding>
                  </valueCodeableConcept>
                </extension>
                <extension url="https://fhir.gkvsv.de/StructureDefinition/GKVSV_EX_ERP_VAT_VALUE">
                  <valueMoney>
                    <value value="1.60"/>
                    <currency value="EUR"/>
                  </valueMoney>
                </extension>
                <extension url="https://fhir.gkvsv.de/StructureDefinition/GKVSV_EX_ERP_Import">
                  <valueCodeableConcept>
                    <coding>
                      <system value="https://fhir.gkvsv.de/CodeSystem/GKVSV_CS_ERP_Import"/>
                      <code value="0"/>
                    </coding>
                  </valueCodeableConcept>
                </extension>
                <sequence value="1"/>
                <chargeItemCodeableConcept>
                  <coding>
                    <system value="http://terminology.hl7.org/CodeSystem/v3-NullFlavor"/>
                    <code value="UNC"/>
                  </coding>
                </chargeItemCodeableConcept>
                <priceComponent>
                  <type value="deduction"/>
                  <code>
                    <coding>
                      <system value="https://fhir.gkvsv.de/CodeSystem/GKVSV_CS_ERP_ZuAbschlagKey"/>
                      <code value="R001"/>
                    </coding>
                  </code>
                  <amount>
                    <value value="-1.77"/>
                    <currency value="EUR"/>
                  </amount>
                </priceComponent>
              </lineItem>
            </Invoice>
          </resource>
        </entry>
      </Bundle>
    </resource>
  </entry>
  <entry>
    <fullUrl value="urn:uuid:7bcd654b-f581-44e7-9393-d725ed34c813"/>
    <resource>
      <Bundle>
        <id value="7bcd654b-f581-44e7-9393-d725ed34c813"/>
        <meta>
          <profile value="https://fhir.gkvsv.de/StructureDefinition/GKVSV_PR_TA7_RezeptBundle|1.1.0"/>
        </meta>
        <type value="collection"/>
        <entry>
          <link>
            <relation value="item"/>
            <url value="https://fhir.kbv.de/StructureDefinition/KBV_PR_ERP_Bundle"/>
          </link>
          <fullUrl value="urn:uuid:46a865a2-ab2c-4c80-ad7c-00c138c08d60"/>
          <resource>
            <Binary>
              <id value="46a865a2-ab2c-4c80-ad7c-00c138c08d60"/>
              <meta>
                <profile value="https://gematik.de/fhir/StructureDefinition/ErxBinary"/>
              </meta>
              <contentType value="application/pkcs7-mime"/>
              <data value="VmVyb3JkbnVuZ3NkYXRlbiBCZWlzcGllbCBFcnN0ZWxsdW5nIEJlaXNwaWVsIGVBYnJlY2hudW5nc2RhdGVu"/>
            </Binary>
          </resource>
        </entry>
        <entry>
          <link>
            <relation value="item"/>
            <url value="https://gematik.de/fhir/StructureDefinition/ErxReceipt"/>
          </link>
          <fullUrl value="urn:uuid:20de54e6-2b68-419b-a66c-57b4af943d3e"/>
          <resource>
            <Binary>
              <id value="20de54e6-2b68-419b-a66c-57b4af943d3e" />
              <meta>
                <profile value="https://gematik.de/fhir/StructureDefinition/ErxBinary" />
              </meta>
              <contentType value="application/pkcs7-mime" />
              <data value="UXVpdHR1bmdzLUJlaXNwaWVsIEVyc3RlbGx1bmcgQmVpc3BpZWwgZUFicmVjaG51bmdzZGF0ZW4=" />
            </Binary>
          </resource>
        </entry>
        <entry>
          <link>
            <relation value="item"/>
            <url value="http://fhir.abda.de/eRezeptAbgabedaten/StructureDefinition/DAV-PR-ERP-AbgabedatenBundle"/>
          </link>
          <fullUrl value="urn:uuid:ffed63a7-10f3-4855-82a0-6d8f34d16c7c"/>
          <resource>
            <Binary>
              <id value="ffed63a7-10f3-4855-82a0-6d8f34d16c7c"/>
              <meta>
                <profile value="https://gematik.de/fhir/StructureDefinition/ErxBinary"/>
              </meta>
              <contentType value="application/pkcs7-mime"/>
              <data value="ZUFiZ2FiZWRhdGVuIEJlaXNwaWVsIEVyc3RlbGx1bmcgQmVpc3BpZWwgZUFicmVjaG51bmdzZGF0ZW4="/>
            </Binary>
          </resource>
        </entry>
        <entry>
          <link>
            <relation value="item"/>
            <url value="https://fhir.gkvsv.de/StructureDefinition/GKVSV_PR_ERP_eAbrechnungsdaten"/>
          </link>
          <fullUrl value="urn:uuid:1b2b73cf-bdd8-4aaa-bcf5-47c0d76e28f0"/>
          <resource>
            <Invoice>
              <id value="1b2b73cf-bdd8-4aaa-bcf5-47c0d76e28f0"/>
              <meta>
                <profile value="https://fhir.gkvsv.de/StructureDefinition/GKVSV_PR_ERP_eAbrechnungsdaten|1.1.0"/>
              </meta>
              <extension url="https://fhir.gkvsv.de/StructureDefinition/GKVSV_EX_ERP_Irrlaeufer">
                <valueBoolean value="false"/>
              </extension>
              <identifier>
                <system value="https://gematik.de/fhir/NamingSystem/PrescriptionID"/>
                <value value="160.100.000.000.019.82"/>
              </identifier>
              <identifier>
                <system value="https://fhir.gkvsv.de/NamingSystem/GKVSV_NS_Belegnummer"/>
                <value value="2105000000213456789"/>
              </identifier>
              <status value="issued"/>
              <issuer>
                <extension url="https://fhir.gkvsv.de/StructureDefinition/GKVSV_EX_ERP_LE_Sitz">
                  <valueCoding>
                    <system value="https://fhir.gkvsv.de/CodeSystem/GKVSV_CS_ERP_Leistungserbringer_Sitz"/>
                    <code value="1"/>
                  </valueCoding>
                </extension>
                <identifier>
                  <type>
                    <coding>
                      <system value="https://fhir.gkvsv.de/CodeSystem/GKVSV_CS_ERP_Leistungserbringertyp"/>
                      <code value="A"/>
                    </coding>
                  </type>
                  <system value="http://fhir.de/NamingSystem/arge-ik/iknr"/>
                  <value value="308412345"/>
                </identifier>
              </issuer>
              <lineItem>
                <extension url="https://fhir.gkvsv.de/StructureDefinition/GKVSV_EX_ERP_Positionstyp">
                  <valueCodeableConcept>
                    <coding>
                      <system value="https://fhir.gkvsv.de/CodeSystem/GKVSV_CS_ERP_Positionstyp"/>
                      <code value="1"/>
                      <display value="übrige Position"/>
                    </coding>
                  </valueCodeableConcept>
                </extension>
                <extension url="https://fhir.gkvsv.de/StructureDefinition/GKVSV_EX_ERP_VAT_VALUE">
                  <valueMoney>
                    <value value="2.14"/>
                    <currency value="EUR"/>
                  </valueMoney>
                </extension>
                <extension url="https://fhir.gkvsv.de/StructureDefinition/GKVSV_EX_ERP_Import">
                  <valueCodeableConcept>
                    <coding>
                      <system value="https://fhir.gkvsv.de/CodeSystem/GKVSV_CS_ERP_Import"/>
                      <code value="0"/>
                    </coding>
                  </valueCodeableConcept>
                </extension>
                <sequence value="1"/>
                <chargeItemCodeableConcept>
                  <coding>
                    <system value="http://terminology.hl7.org/CodeSystem/v3-NullFlavor"/>
                    <code value="UNC"/>
                  </coding>
                </chargeItemCodeableConcept>
                <priceComponent>
                  <type value="deduction"/>
                  <code>
                    <coding>
                      <system value="https://fhir.gkvsv.de/CodeSystem/GKVSV_CS_ERP_ZuAbschlagKey"/>
                      <code value="R001"/>
                    </coding>
                  </code>
                  <amount>
                    <value value="-1.77"/>
                    <currency value="EUR"/>
                  </amount>
                </priceComponent>
              </lineItem>
            </Invoice>
          </resource>
        </entry>
      </Bundle>
    </resource>
  </entry>
  <entry>
    <fullUrl value="urn:uuid:7d9c7d31-3890-43d8-ade8-4a424597d11c"/>
    <resource>
      <Bundle>
        <id value="7d9c7d31-3890-43d8-ade8-4a424597d11c"/>
        <meta>
          <profile value="https://fhir.gkvsv.de/StructureDefinition/GKVSV_PR_TA7_RezeptBundle|1.1.0"/>
        </meta>
        <type value="collection"/>
        <entry>
          <link>
            <relation value="item"/>
            <url value="https://fhir.kbv.de/StructureDefinition/KBV_PR_ERP_Bundle"/>
          </link>
          <fullUrl value="urn:uuid:266b5bbf-86b2-45dc-933f-58663ab2a5d7"/>
          <resource>
            <Binary>
              <id value="266b5bbf-86b2-45dc-933f-58663ab2a5d7"/>
              <meta>
                <profile value="https://gematik.de/fhir/StructureDefinition/ErxBinary"/>
              </meta>
              <contentType value="application/pkcs7-mime"/>
              <data value="VmVyb3JkbnVuZ3NkYXRlbiBCZWlzcGllbCBFcnN0ZWxsdW5nIEJlaXNwaWVsIGVBYnJlY2hudW5nc2RhdGVu"/>
            </Binary>
          </resource>
        </entry>
        <entry>
          <link>
            <relation value="item"/>
            <url value="https://gematik.de/fhir/StructureDefinition/ErxReceipt"/>
          </link>
          <fullUrl value="urn:uuid:4be5b007-c48f-4cee-95bf-e2cea15880a3"/>
          <resource>
            <Binary>
              <id value="4be5b007-c48f-4cee-95bf-e2cea15880a3" />
              <meta>
                <profile value="https://gematik.de/fhir/StructureDefinition/ErxBinary" />
              </meta>
              <contentType value="application/pkcs7-mime" />
              <data value="UXVpdHR1bmdzLUJlaXNwaWVsIEVyc3RlbGx1bmcgQmVpc3BpZWwgZUFicmVjaG51bmdzZGF0ZW4=" />
            </Binary>
          </resource>
        </entry>
        <entry>
          <link>
            <relation value="item"/>
            <url value="http://fhir.abda.de/eRezeptAbgabedaten/StructureDefinition/DAV-PR-ERP-AbgabedatenBundle"/>
          </link>
          <fullUrl value="urn:uuid:6abbe7da-e9cb-4d55-9577-232d23594b19"/>
          <resource>
            <Binary>
              <id value="6abbe7da-e9cb-4d55-9577-232d23594b19"/>
              <meta>
                <profile value="https://gematik.de/fhir/StructureDefinition/ErxBinary"/>
              </meta>
              <contentType value="application/pkcs7-mime"/>
              <data value="ZUFiZ2FiZWRhdGVuIEJlaXNwaWVsIEVyc3RlbGx1bmcgQmVpc3BpZWwgZUFicmVjaG51bmdzZGF0ZW4="/>
            </Binary>
          </resource>
        </entry>
        <entry>
          <link>
            <relation value="item"/>
            <url value="https://fhir.gkvsv.de/StructureDefinition/GKVSV_PR_ERP_eAbrechnungsdaten"/>
          </link>
          <fullUrl value="urn:uuid:f20eeb4d-2ff6-4d72-b2db-3e5b6870bebf"/>
          <resource>
            <Invoice>
              <id value="f20eeb4d-2ff6-4d72-b2db-3e5b6870bebf"/>
              <meta>
                <profile value="https://fhir.gkvsv.de/StructureDefinition/GKVSV_PR_ERP_eAbrechnungsdaten|1.1.0"/>
              </meta>
              <extension url="https://fhir.gkvsv.de/StructureDefinition/GKVSV_EX_ERP_Irrlaeufer">
                <valueBoolean value="false"/>
              </extension>
              <identifier>
                <system value="https://gematik.de/fhir/NamingSystem/PrescriptionID"/>
                <value value="160.100.000.000.009.15"/>
              </identifier>
              <identifier>
                <system value="https://fhir.gkvsv.de/NamingSystem/GKVSV_NS_Belegnummer"/>
                <value value="2105523450020000001"/>
              </identifier>
              <status value="issued"/>
              <issuer>
                <extension url="https://fhir.gkvsv.de/StructureDefinition/GKVSV_EX_ERP_LE_Sitz">
                  <valueCoding>
                    <system value="https://fhir.gkvsv.de/CodeSystem/GKVSV_CS_ERP_Leistungserbringer_Sitz"/>
                    <code value="1"/>
                  </valueCoding>
                </extension>
                <identifier>
                  <type>
                    <coding>
                      <system value="https://fhir.gkvsv.de/CodeSystem/GKVSV_CS_ERP_Leistungserbringertyp"/>
                      <code value="A"/>
                    </coding>
                  </type>
                  <system value="http://fhir.de/NamingSystem/arge-ik/iknr"/>
                  <value value="308412345"/>
                </identifier>
              </issuer>
              <lineItem>
                <extension url="https://fhir.gkvsv.de/StructureDefinition/GKVSV_EX_ERP_Positionstyp">
                  <valueCodeableConcept>
                    <coding>
                      <system value="https://fhir.gkvsv.de/CodeSystem/GKVSV_CS_ERP_Positionstyp"/>
                      <code value="1"/>
                      <display value="übrige Position"/>
                    </coding>
                  </valueCodeableConcept>
                </extension>
                <extension url="https://fhir.gkvsv.de/StructureDefinition/GKVSV_EX_ERP_VAT_VALUE">
                  <valueMoney>
                    <value value="7.18"/>
                    <currency value="EUR"/>
                  </valueMoney>
                </extension>
                <extension url="https://fhir.gkvsv.de/StructureDefinition/GKVSV_EX_ERP_Import">
                  <valueCodeableConcept>
                    <coding>
                      <system value="https://fhir.gkvsv.de/CodeSystem/GKVSV_CS_ERP_Import"/>
                      <code value="0"/>
                    </coding>
                  </valueCodeableConcept>
                </extension>
                <sequence value="1"/>
                <chargeItemCodeableConcept>
                  <coding>
                    <system value="http://terminology.hl7.org/CodeSystem/v3-NullFlavor"/>
                    <code value="UNC"/>
                  </coding>
                </chargeItemCodeableConcept>
                <priceComponent>
                  <type value="deduction"/>
                  <code>
                    <coding>
                      <system value="https://fhir.gkvsv.de/CodeSystem/GKVSV_CS_ERP_ZuAbschlagKey"/>
                      <code value="R001"/>
                    </coding>
                  </code>
                  <amount>
                    <value value="-1.77"/>
                    <currency value="EUR"/>
                  </amount>
                </priceComponent>
              </lineItem>
            </Invoice>
          </resource>
        </entry>
      </Bundle>
    </resource>
  </entry>
  <entry>
    <fullUrl value="urn:uuid:ebf62e86-8a28-4d90-8eeb-abf2e00b8998"/>
    <resource>
      <Bundle>
        <id value="ebf62e86-8a28-4d90-8eeb-abf2e00b8998"/>
        <meta>
          <profile value="https://fhir.gkvsv.de/StructureDefinition/GKVSV_PR_TA7_RezeptBundle|1.1.0"/>
        </meta>
        <type value="collection"/>
        <entry>
          <link>
            <relation value="item"/>
            <url value="https://fhir.kbv.de/StructureDefinition/KBV_PR_ERP_Bundle"/>
          </link>
          <fullUrl value="urn:uuid:0fc8d849-7b0d-4685-ad23-094a68706231"/>
          <resource>
            <Binary>
              <id value="0fc8d849-7b0d-4685-ad23-094a68706231"/>
              <meta>
                <profile value="https://gematik.de/fhir/StructureDefinition/ErxBinary"/>
              </meta>
              <contentType value="application/pkcs7-mime"/>
              <data value="VmVyb3JkbnVuZ3NkYXRlbiBCZWlzcGllbCBFcnN0ZWxsdW5nIEJlaXNwaWVsIGVBYnJlY2hudW5nc2RhdGVu"/>
            </Binary>
          </resource>
        </entry>
        <entry>
          <link>
            <relation value="item"/>
            <url value="https://gematik.de/fhir/StructureDefinition/ErxReceipt"/>
          </link>
          <fullUrl value="urn:uuid:21b669d4-d835-4d1c-a667-9aa0b1cbe893"/>
          <resource>
            <Binary>
              <id value="21b669d4-d835-4d1c-a667-9aa0b1cbe893" />
              <meta>
                <profile value="https://gematik.de/fhir/StructureDefinition/ErxBinary" />
              </meta>
              <contentType value="application/pkcs7-mime" />
              <data value="UXVpdHR1bmdzLUJlaXNwaWVsIEVyc3RlbGx1bmcgQmVpc3BpZWwgZUFicmVjaG51bmdzZGF0ZW4=" />
            </Binary>
          </resource>
        </entry>
        <entry>
          <link>
            <relation value="item"/>
            <url value="http://fhir.abda.de/eRezeptAbgabedaten/StructureDefinition/DAV-PR-ERP-AbgabedatenBundle"/>
          </link>
          <fullUrl value="urn:uuid:bdb3052a-3e8a-4952-b9be-7c12219c2b81"/>
          <resource>
            <Binary>
              <id value="bdb3052a-3e8a-4952-b9be-7c12219c2b81"/>
              <meta>
                <profile value="https://gematik.de/fhir/StructureDefinition/ErxBinary"/>
              </meta>
              <contentType value="application/pkcs7-mime"/>
              <data value="ZUFiZ2FiZWRhdGVuIEJlaXNwaWVsIEVyc3RlbGx1bmcgQmVpc3BpZWwgZUFicmVjaG51bmdzZGF0ZW4="/>
            </Binary>
          </resource>
        </entry>
        <entry>
          <link>
            <relation value="item"/>
            <url value="https://fhir.gkvsv.de/StructureDefinition/GKVSV_PR_ERP_eAbrechnungsdaten"/>
          </link>
          <fullUrl value="urn:uuid:24563ccd-6723-437d-aa59-6b3325066781"/>
          <resource>
            <Invoice>
              <id value="24563ccd-6723-437d-aa59-6b3325066781"/>
              <meta>
                <profile value="https://fhir.gkvsv.de/StructureDefinition/GKVSV_PR_ERP_eAbrechnungsdaten|1.1.0"/>
              </meta>
              <extension url="https://fhir.gkvsv.de/StructureDefinition/GKVSV_EX_ERP_Irrlaeufer">
                <valueBoolean value="false"/>
              </extension>
              <identifier>
                <system value="https://gematik.de/fhir/NamingSystem/PrescriptionID"/>
                <value value="160.100.000.000.011.09"/>
              </identifier>
              <identifier>
                <system value="https://fhir.gkvsv.de/NamingSystem/GKVSV_NS_Belegnummer"/>
                <value value="2103000000010000001"/>
              </identifier>
              <status value="issued"/>
              <issuer>
                <extension url="https://fhir.gkvsv.de/StructureDefinition/GKVSV_EX_ERP_LE_Sitz">
                  <valueCoding>
                    <system value="https://fhir.gkvsv.de/CodeSystem/GKVSV_CS_ERP_Leistungserbringer_Sitz"/>
                    <code value="1"/>
                  </valueCoding>
                </extension>
                <identifier>
                  <type>
                    <coding>
                      <system value="https://fhir.gkvsv.de/CodeSystem/GKVSV_CS_ERP_Leistungserbringertyp"/>
                      <code value="A"/>
                    </coding>
                  </type>
                  <system value="http://fhir.de/NamingSystem/arge-ik/iknr"/>
                  <value value="308412345"/>
                </identifier>
              </issuer>
              <lineItem>
                <extension url="https://fhir.gkvsv.de/StructureDefinition/GKVSV_EX_ERP_Positionstyp">
                  <valueCodeableConcept>
                    <coding>
                      <system value="https://fhir.gkvsv.de/CodeSystem/GKVSV_CS_ERP_Positionstyp"/>
                      <code value="1"/>
                      <display value="übrige Position"/>
                    </coding>
                  </valueCodeableConcept>
                </extension>
                <extension url="https://fhir.gkvsv.de/StructureDefinition/GKVSV_EX_ERP_VAT_VALUE">
                  <valueMoney>
                    <value value="1.62"/>
                    <currency value="EUR"/>
                  </valueMoney>
                </extension>
                <extension url="https://fhir.gkvsv.de/StructureDefinition/GKVSV_EX_ERP_Import">
                  <valueCodeableConcept>
                    <coding>
                      <system value="https://fhir.gkvsv.de/CodeSystem/GKVSV_CS_ERP_Import"/>
                      <code value="0"/>
                    </coding>
                  </valueCodeableConcept>
                </extension>
                <sequence value="1"/>
                <chargeItemCodeableConcept>
                  <coding>
                    <system value="http://terminology.hl7.org/CodeSystem/v3-NullFlavor"/>
                    <code value="UNC"/>
                  </coding>
                </chargeItemCodeableConcept>
                <priceComponent>
                  <type value="deduction"/>
                  <code>
                    <coding>
                      <system value="https://fhir.gkvsv.de/CodeSystem/GKVSV_CS_ERP_ZuAbschlagKey"/>
                      <code value="R001"/>
                    </coding>
                  </code>
                  <amount>
                    <value value="-1.77"/>
                    <currency value="EUR"/>
                  </amount>
                </priceComponent>
              </lineItem>
            </Invoice>
          </resource>
        </entry>
      </Bundle>
    </resource>
  </entry>
  <entry>
    <fullUrl value="urn:uuid:e5c55b6e-215e-4052-8e21-5bbd9ba7d5af"/>
    <resource>
      <Bundle>
        <id value="e5c55b6e-215e-4052-8e21-5bbd9ba7d5af"/>
        <meta>
          <profile value="https://fhir.gkvsv.de/StructureDefinition/GKVSV_PR_TA7_RezeptBundle|1.1.0"/>
        </meta>
        <type value="collection"/>
        <entry>
          <link>
            <relation value="item"/>
            <url value="https://fhir.kbv.de/StructureDefinition/KBV_PR_ERP_Bundle"/>
          </link>
          <fullUrl value="urn:uuid:31e00cf5-e90a-4fc9-a438-1d98041483ff"/>
          <resource>
            <Binary>
              <id value="31e00cf5-e90a-4fc9-a438-1d98041483ff"/>
              <meta>
                <profile value="https://gematik.de/fhir/StructureDefinition/ErxBinary"/>
              </meta>
              <contentType value="application/pkcs7-mime"/>
              <data value="VmVyb3JkbnVuZ3NkYXRlbiBCZWlzcGllbCBFcnN0ZWxsdW5nIEJlaXNwaWVsIGVBYnJlY2hudW5nc2RhdGVu"/>
            </Binary>
          </resource>
        </entry>
        <entry>
          <link>
            <relation value="item"/>
            <url value="https://gematik.de/fhir/StructureDefinition/ErxReceipt"/>
          </link>
          <fullUrl value="urn:uuid:3370028b-ae75-4cc2-a251-5ec40cb8ef25"/>
          <resource>
            <Binary>
              <id value="3370028b-ae75-4cc2-a251-5ec40cb8ef25" />
              <meta>
                <profile value="https://gematik.de/fhir/StructureDefinition/ErxBinary" />
              </meta>
              <contentType value="application/pkcs7-mime" />
              <data value="UXVpdHR1bmdzLUJlaXNwaWVsIEVyc3RlbGx1bmcgQmVpc3BpZWwgZUFicmVjaG51bmdzZGF0ZW4=" />
            </Binary>
          </resource>
        </entry>
        <entry>
          <link>
            <relation value="item"/>
            <url value="http://fhir.abda.de/eRezeptAbgabedaten/StructureDefinition/DAV-PR-ERP-AbgabedatenBundle"/>
          </link>
          <fullUrl value="urn:uuid:0124a84a-7792-4f13-8a39-dfb20176a399"/>
          <resource>
            <Binary>
              <id value="0124a84a-7792-4f13-8a39-dfb20176a399"/>
              <meta>
                <profile value="https://gematik.de/fhir/StructureDefinition/ErxBinary"/>
              </meta>
              <contentType value="application/pkcs7-mime"/>
              <data value="ZUFiZ2FiZWRhdGVuIEJlaXNwaWVsIEVyc3RlbGx1bmcgQmVpc3BpZWwgZUFicmVjaG51bmdzZGF0ZW4="/>
            </Binary>
          </resource>
        </entry>
        <entry>
          <link>
            <relation value="item"/>
            <url value="https://fhir.gkvsv.de/StructureDefinition/GKVSV_PR_ERP_eAbrechnungsdaten"/>
          </link>
          <fullUrl value="urn:uuid:acd37e98-2b59-42f0-b163-51cea0f6c1f8"/>
          <resource>
            <Invoice>
              <id value="acd37e98-2b59-42f0-b163-51cea0f6c1f8"/>
              <meta>
                <profile value="https://fhir.gkvsv.de/StructureDefinition/GKVSV_PR_ERP_eAbrechnungsdaten|1.1.0"/>
              </meta>
              <extension url="https://fhir.gkvsv.de/StructureDefinition/GKVSV_EX_ERP_Irrlaeufer">
                <valueBoolean value="false"/>
              </extension>
              <identifier>
                <system value="https://gematik.de/fhir/NamingSystem/PrescriptionID"/>
                <value value="160.100.000.000.010.12"/>
              </identifier>
              <identifier>
                <system value="https://fhir.gkvsv.de/NamingSystem/GKVSV_NS_Belegnummer"/>
                <value value="2105000000013456789"/>
              </identifier>
              <status value="issued"/>
              <issuer>
                <extension url="https://fhir.gkvsv.de/StructureDefinition/GKVSV_EX_ERP_LE_Sitz">
                  <valueCoding>
                    <system value="https://fhir.gkvsv.de/CodeSystem/GKVSV_CS_ERP_Leistungserbringer_Sitz"/>
                    <code value="1"/>
                  </valueCoding>
                </extension>
                <identifier>
                  <type>
                    <coding>
                      <system value="https://fhir.gkvsv.de/CodeSystem/GKVSV_CS_ERP_Leistungserbringertyp"/>
                      <code value="A"/>
                    </coding>
                  </type>
                  <system value="http://fhir.de/NamingSystem/arge-ik/iknr"/>
                  <value value="308412345"/>
                </identifier>
              </issuer>
              <lineItem>
                <extension url="https://fhir.gkvsv.de/StructureDefinition/GKVSV_EX_ERP_Positionstyp">
                  <valueCodeableConcept>
                    <coding>
                      <system value="https://fhir.gkvsv.de/CodeSystem/GKVSV_CS_ERP_Positionstyp"/>
                      <code value="0"/>
                      <display value="Nullposition"/>
                    </coding>
                  </valueCodeableConcept>
                </extension>
                <extension url="https://fhir.gkvsv.de/StructureDefinition/GKVSV_EX_ERP_VAT_VALUE">
                  <valueMoney>
                    <value value="2.42"/>
                    <currency value="EUR"/>
                  </valueMoney>
                </extension>
                <extension url="https://fhir.gkvsv.de/StructureDefinition/GKVSV_EX_ERP_Import">
                  <valueCodeableConcept>
                    <coding>
                      <system value="https://fhir.gkvsv.de/CodeSystem/GKVSV_CS_ERP_Import"/>
                      <code value="0"/>
                    </coding>
                  </valueCodeableConcept>
                </extension>
                <sequence value="1"/>
                <chargeItemCodeableConcept>
                  <coding>
                    <system value="http://terminology.hl7.org/CodeSystem/v3-NullFlavor"/>
                    <code value="UNC"/>
                  </coding>
                </chargeItemCodeableConcept>
                <priceComponent>
                  <type value="deduction"/>
                  <code>
                    <coding>
                      <system value="https://fhir.gkvsv.de/CodeSystem/GKVSV_CS_ERP_ZuAbschlagKey"/>
                      <code value="R001"/>
                    </coding>
                  </code>
                  <amount>
                    <value value="-1.77"/>
                    <currency value="EUR"/>
                  </amount>
                </priceComponent>
              </lineItem>
            </Invoice>
          </resource>
        </entry>
      </Bundle>
    </resource>
  </entry>
</Bundle>
