<Bundle xmlns="http://hl7.org/fhir">
  <id value="7151f8a0-285e-49c8-b2cd-e631f2900ba3"/>
  <meta>
    <profile value="https://fhir.gkvsv.de/StructureDefinition/GKVSV_PR_TA7_Sammelrechnung_Bundle|1.0.6"/>
    <tag>
      <display value="Beispiel der TA7/eAbrechnungsdaten."/>
    </tag>
    <tag>
      <display value="ACHTUNG! Der fachlich korrekte Inhalt der Beispielinstanz kann nicht gew채hrleistet werden. Wir sind jederzeit dankbar f체r Hinweise auf Fehler oder f체r Verbesserungsvorschl채ge."/>
    </tag>
  </meta>
  <identifier>
    <extension url="https://fhir.gkvsv.de/StructureDefinition/GKVSV_EX_ERP_TA7_Dateinummer">
      <valueString value="00001"/>
    </extension>
    <system value="https://fhir.gkvsv.de/NamingSystem/GKVSV_NS_Dateiname"/>
    <value value="ARZFHR21001"/>
  </identifier>
  <type value="document"/>
  <timestamp value="2021-06-02T10:00:00Z"/>
  <entry>
    <fullUrl value="urn:uuid:b9256c4c-0f4e-41e7-acdd-cbf03c90a18f"/>
    <resource>
      <Composition>
        <id value="b9256c4c-0f4e-41e7-acdd-cbf03c90a18f"/>
        <meta>
          <profile value="https://fhir.gkvsv.de/StructureDefinition/GKVSV_PR_TA7_Sammelrechnung_Composition|1.0.6"/>
        </meta>
        <extension url="https://fhir.gkvsv.de/StructureDefinition/GKVSV_EX_TA7_IK_Empfaenger">
          <valueIdentifier>
            <system value="http://fhir.de/NamingSystem/arge-ik/iknr"/>
            <value value="101575519"/>
          </valueIdentifier>
        </extension>
        <extension url="https://fhir.gkvsv.de/StructureDefinition/GKVSV_EX_TA7_IK_Kostentraeger">
          <valueIdentifier>
            <system value="http://fhir.de/NamingSystem/arge-ik/iknr"/>
            <value value="101575519"/>
          </valueIdentifier>
        </extension>
        <status value="final"/>
        <type>
          <coding>
            <system value="https://fhir.gkvsv.de/CodeSystem/GKVSV_CS_ERP_TA7"/>
            <code value="SR"/>
            <display value="Sammelrechnung"/>
          </coding>
        </type>
        <date value="2021-05-31"/>
        <author>
          <identifier>
            <system value="http://fhir.de/NamingSystem/arge-ik/iknr"/>
            <value value="308400023"/>
          </identifier>
        </author>
        <title value="elektronische Sammelrechnung"/>
        <section>
          <code>
            <coding>
              <system value="https://fhir.gkvsv.de/CodeSystem/GKVSV_CS_ERP_TA7"/>
              <code value="LSR"/>
              <display value="Liste der Sammelrechnungen"/>
            </coding>
          </code>
          <entry>
            <reference value="urn:uuid:e2183a5d-5851-4349-bcfa-8bacbb9e42c9"/>
          </entry>
        </section>
        <section>
          <code>
            <coding>
              <system value="https://fhir.gkvsv.de/CodeSystem/GKVSV_CS_ERP_TA7"/>
              <code value="R"/>
              <display value="Rechnungen"/>
            </coding>
          </code>
          <entry>
            <reference value="urn:uuid:18584890-484c-421d-9363-7b857a66285c"/>
          </entry>
          <entry>
            <reference value="urn:uuid:c45c30e8-52c0-419a-92b1-a6222506d95c"/>
          </entry>
        </section>
      </Composition>
    </resource>
  </entry>
  <entry>
    <fullUrl value="urn:uuid:e2183a5d-5851-4349-bcfa-8bacbb9e42c9"/>
    <resource>
      <List>
        <id value="e2183a5d-5851-4349-bcfa-8bacbb9e42c9"/>
        <meta>
          <profile value="https://fhir.gkvsv.de/StructureDefinition/GKVSV_PR_TA7_Sammelrechnung_List|1.0.6"/>
        </meta>
        <status value="current"/>
        <mode value="working"/>
        <entry>
          <item>
            <reference value="Bundle/7151f8a0-285e-49c8-b2cd-e631f2900ba3"/>
          </item>
        </entry>
        <entry>
          <item>
            <reference value="Bundle/e7e7092b-7fea-44b5-9428-ecc89a37b2ed"/>
          </item>
        </entry>
      </List>
    </resource>
  </entry>
  <entry>
    <fullUrl value="urn:uuid:18584890-484c-421d-9363-7b857a66285c"/>
    <resource>
      <Invoice>
        <id value="18584890-484c-421d-9363-7b857a66285c"/>
        <meta>
          <profile value="https://fhir.gkvsv.de/StructureDefinition/GKVSV_PR_TA7_Rechnung|1.0.6"/>
        </meta>
        <extension url="https://fhir.gkvsv.de/StructureDefinition/GKVSV_EX_ERP_TA7_Abrechnungszeitraum">
          <valueDateTime value="2021-05-31"/>
        </extension>
        <extension url="https://fhir.gkvsv.de/StructureDefinition/GKVSV_EX_ERP_RezeptBundleReferenz">
          <extension url="lineItem">
            <valueReference>
              <reference value="urn:uuid:ebf62e86-8a28-4d90-8eeb-abf2e00b8998"/>
            </valueReference>
          </extension>
        </extension>
        <identifier>
          <system value="https://fhir.gkvsv.de/NamingSystem/GKVSV_NS_Sammelrechnungsnummer"/>
          <value value="21050022"/>
        </identifier>
        <status value="issued"/>
        <type>
          <coding>
            <system value="https://fhir.gkvsv.de/CodeSystem/GKVSV_CS_ERP_Rechnungsart"/>
            <code value="6"/>
          </coding>
        </type>
        <recipient>
          <identifier>
            <system value="http://fhir.de/NamingSystem/arge-ik/iknr"/>
            <value value="101575519"/>
          </identifier>
        </recipient>
        <date value="2021-06-02"/>
      </Invoice>
    </resource>
  </entry>
  <entry>
    <fullUrl value="urn:uuid:c45c30e8-52c0-419a-92b1-a6222506d95c"/>
    <resource>
      <Invoice>
        <id value="c45c30e8-52c0-419a-92b1-a6222506d95c"/>
        <meta>
          <profile value="https://fhir.gkvsv.de/StructureDefinition/GKVSV_PR_TA7_Rechnung|1.0.6"/>
        </meta>
        <extension url="https://fhir.gkvsv.de/StructureDefinition/GKVSV_EX_ERP_TA7_Abrechnungszeitraum">
          <valueDateTime value="2021-05-31"/>
        </extension>
        <extension url="https://fhir.gkvsv.de/StructureDefinition/GKVSV_EX_ERP_RezeptBundleReferenz">
          <extension url="lineItem">
            <valueReference>
              <reference value="urn:uuid:e5c55b6e-215e-4052-8e21-5bbd9ba7d5af"/>
            </valueReference>
          </extension>
        </extension>
        <identifier>
          <system value="https://fhir.gkvsv.de/NamingSystem/GKVSV_NS_Sammelrechnungsnummer"/>
          <value value="109777509-01-020621"/>
        </identifier>
        <status value="issued"/>
        <type>
          <coding>
            <system value="https://fhir.gkvsv.de/CodeSystem/GKVSV_CS_ERP_Rechnungsart"/>
            <code value="6"/>
          </coding>
        </type>
        <recipient>
          <identifier>
            <system value="http://fhir.de/NamingSystem/arge-ik/iknr"/>
            <value value="101575519"/>
          </identifier>
        </recipient>
        <date value="2021-06-02"/>
      </Invoice>
    </resource>
  </entry>
  <entry>
    <fullUrl value="urn:uuid:ebf62e86-8a28-4d90-8eeb-abf2e00b8998"/>
    <resource>
      <Bundle>
        <id value="ebf62e86-8a28-4d90-8eeb-abf2e00b8998"/>
        <meta>
          <profile value="https://fhir.gkvsv.de/StructureDefinition/GKVSV_PR_TA7_RezeptBundle|1.0.6"/>
        </meta>
        <type value="collection"/>
        <entry>
          <link>
            <relation value="item"/>
            <url value="https://fhir.kbv.de/StructureDefinition/KBV_PR_ERP_Bundle"/>
          </link>
          <fullUrl value="urn:uuid:0fc8d849-7b0d-4685-ad23-094a68706231"/>
          <resource>
            <Binary>
              <id value="0fc8d849-7b0d-4685-ad23-094a68706231"/>
              <meta>
                <profile value="https://gematik.de/fhir/StructureDefinition/ErxBinary"/>
              </meta>
              <contentType value="application/pkcs7-mime"/>
              <data value="VmVyb3JkbnVuZ3NkYXRlbiBCZWlzcGllbCBFcnN0ZWxsdW5nIEJlaXNwaWVsIGVBYnJlY2hudW5nc2RhdGVu"/>
            </Binary>
          </resource>
        </entry>
        <entry>
          <link>
            <relation value="item"/>
            <url value="https://gematik.de/fhir/StructureDefinition/ErxReceipt"/>
          </link>
          <fullUrl value="urn:uuid:21b669d4-d835-4d1c-a667-9aa0b1cbe893"/>
          <resource>
            <Bundle>
              <id value="21b669d4-d835-4d1c-a667-9aa0b1cbe893"/>
              <meta>
                <profile value="https://gematik.de/fhir/StructureDefinition/ErxReceipt"/>
              </meta>
              <identifier>
                <system value="https://gematik.de/fhir/NamingSystem/PrescriptionID"/>
                <value value="160.100.000.000.011.09"/>
              </identifier>
              <type value="document"/>
              <timestamp value="2021-05-27T09:30:00Z"/>
              <link>
                <relation value="self"/>
                <url value="https://gematik.erppre.de:443/Task/160.100.000.000.011.09/$close"/>
              </link>
              <entry>
                <fullUrl value="urn:uuid:0b973a9d-fe80-4cf7-8580-2dc56f5a56d4"/>
                <resource>
                  <Composition>
                    <id value="0b973a9d-fe80-4cf7-8580-2dc56f5a56d4"/>
                    <meta>
                      <profile value="https://gematik.de/fhir/StructureDefinition/ErxComposition"/>
                    </meta>
                    <extension url="https://gematik.de/fhir/StructureDefinition/BeneficiaryExtension">
                      <valueIdentifier>
                        <system value="https://gematik.de/fhir/NamingSystem/TelematikID"/>
                        <value value="606358757"/>
                      </valueIdentifier>
                    </extension>
                    <status value="final"/>
                    <type>
                      <coding>
                        <system value="https://gematik.de/fhir/CodeSystem/Documenttype"/>
                        <code value="3"/>
                        <display value="Receipt"/>
                      </coding>
                    </type>
                    <date value="2021-05-27T09:30:00Z"/>
                    <author>
                      <reference value="https://gematik.erppre.de:443/Device"/>
                    </author>
                    <title value="Quittung"/>
                    <event>
                      <period>
                        <start value="2021-05-27T08:45:00Z"/>
                        <end value="2021-05-27T09:30:00Z"/>
                      </period>
                    </event>
                  </Composition>
                </resource>
              </entry>
              <entry>
                <fullUrl value="https://gematik.erppre.de:443/Device"/>
                <resource>
                  <Device>
                    <id value="ErxService2"/>
                    <meta>
                      <profile value="https://gematik.de/fhir/StructureDefinition/ErxDevice"/>
                    </meta>
                    <status value="active"/>
                    <serialNumber value="0.3.1"/>
                    <deviceName>
                      <name value="E-Rezept Fachdienst"/>
                      <type value="user-friendly-name"/>
                    </deviceName>
                    <version>
                      <value value="0.3.1"/>
                    </version>
                    <contact>
                      <system value="email"/>
                      <value value="betrieb@gematik.de"/>
                    </contact>
                  </Device>
                </resource>
              </entry>
              <signature>
                <type>
                  <system value="urn:iso-astm:E1762-95:2013"/>
                  <code value="1.2.840.10065.1.12.1.1"/>
                </type>
                <when value="2021-05-27T09:30:00Z"/>
                <who>
                  <reference value="https://gematik.erppre.de:443/Device"/>
                </who>
                <sigFormat value="application/pkcs7-mime"/>
                <data value=""/>
              </signature>
            </Bundle>
          </resource>
        </entry>
        <entry>
          <link>
            <relation value="item"/>
            <url value="http://fhir.abda.de/eRezeptAbgabedaten/StructureDefinition/DAV-PR-ERP-AbgabedatenBundle"/>
          </link>
          <fullUrl value="urn:uuid:bdb3052a-3e8a-4952-b9be-7c12219c2b81"/>
          <resource>
            <Binary>
              <id value="bdb3052a-3e8a-4952-b9be-7c12219c2b81"/>
              <meta>
                <profile value="https://gematik.de/fhir/StructureDefinition/ErxBinary"/>
              </meta>
              <contentType value="application/pkcs7-mime"/>
              <data value="ZUFiZ2FiZWRhdGVuIEJlaXNwaWVsIEVyc3RlbGx1bmcgQmVpc3BpZWwgZUFicmVjaG51bmdzZGF0ZW4="/>
            </Binary>
          </resource>
        </entry>
        <entry>
          <link>
            <relation value="item"/>
            <url value="https://fhir.gkvsv.de/StructureDefinition/GKVSV_PR_ERP_eAbrechnungsdaten"/>
          </link>
          <fullUrl value="urn:uuid:24563ccd-6723-437d-aa59-6b3325066781"/>
          <resource>
            <Invoice>
              <id value="24563ccd-6723-437d-aa59-6b3325066781"/>
              <meta>
                <profile value="https://fhir.gkvsv.de/StructureDefinition/GKVSV_PR_ERP_eAbrechnungsdaten|1.0.6"/>
              </meta>
              <extension url="https://fhir.gkvsv.de/StructureDefinition/GKVSV_EX_ERP_Irrlaeufer">
                <valueBoolean value="false"/>
              </extension>
              <identifier>
                <system value="https://gematik.de/fhir/NamingSystem/PrescriptionID"/>
                <value value="160.100.000.000.011.09"/>
              </identifier>
              <identifier>
                <system value="https://fhir.gkvsv.de/NamingSystem/GKVSV_NS_Belegnummer"/>
                <value value="2103000000010000001"/>
              </identifier>
              <status value="issued"/>
              <issuer>
                <extension url="https://fhir.gkvsv.de/StructureDefinition/GKVSV_EX_ERP_LE_Sitz">
                  <valueCoding>
                    <system value="https://fhir.gkvsv.de/CodeSystem/GKVSV_CS_ERP_Leistungserbringer_Sitz"/>
                    <code value="1"/>
                  </valueCoding>
                </extension>
                <identifier>
                  <type>
                    <coding>
                      <system value="https://fhir.gkvsv.de/CodeSystem/GKVSV_CS_ERP_Leistungserbringertyp"/>
                      <code value="A"/>
                    </coding>
                  </type>
                  <system value="http://fhir.de/NamingSystem/arge-ik/iknr"/>
                  <value value="308412345"/>
                </identifier>
              </issuer>
              <lineItem>
                <extension url="https://fhir.gkvsv.de/StructureDefinition/GKVSV_EX_ERP_Positionstyp">
                  <valueCodeableConcept>
                    <coding>
                      <system value="https://fhir.gkvsv.de/CodeSystem/GKVSV_CS_ERP_Positionstyp"/>
                      <code value="1"/>
                      <display value="체brige Position"/>
                    </coding>
                  </valueCodeableConcept>
                </extension>
                <extension url="https://fhir.gkvsv.de/StructureDefinition/GKVSV_EX_ERP_VAT_VALUE">
                  <valueMoney>
                    <value value="1.62"/>
                    <currency value="EUR"/>
                  </valueMoney>
                </extension>
                <extension url="https://fhir.gkvsv.de/StructureDefinition/GKVSV_EX_ERP_Import">
                  <valueCodeableConcept>
                    <coding>
                      <system value="https://fhir.gkvsv.de/CodeSystem/GKVSV_CS_ERP_Import"/>
                      <code value="0"/>
                    </coding>
                  </valueCodeableConcept>
                </extension>
                <sequence value="1"/>
                <chargeItemCodeableConcept>
                  <coding>
                    <system value="http://terminology.hl7.org/CodeSystem/v3-NullFlavor"/>
                    <code value="UNC"/>
                  </coding>
                </chargeItemCodeableConcept>
                <priceComponent>
                  <type value="deduction"/>
                  <code>
                    <coding>
                      <system value="https://fhir.gkvsv.de/CodeSystem/GKVSV_CS_ERP_ZuAbschlagKey"/>
                      <code value="R001"/>
                    </coding>
                  </code>
                  <amount>
                    <value value="-1.77"/>
                    <currency value="EUR"/>
                  </amount>
                </priceComponent>
              </lineItem>
            </Invoice>
          </resource>
        </entry>
      </Bundle>
    </resource>
  </entry>
  <entry>
    <fullUrl value="urn:uuid:e5c55b6e-215e-4052-8e21-5bbd9ba7d5af"/>
    <resource>
      <Bundle>
        <id value="e5c55b6e-215e-4052-8e21-5bbd9ba7d5af"/>
        <meta>
          <profile value="https://fhir.gkvsv.de/StructureDefinition/GKVSV_PR_TA7_RezeptBundle|1.0.6"/>
        </meta>
        <type value="collection"/>
        <entry>
          <link>
            <relation value="item"/>
            <url value="https://fhir.kbv.de/StructureDefinition/KBV_PR_ERP_Bundle"/>
          </link>
          <fullUrl value="urn:uuid:31e00cf5-e90a-4fc9-a438-1d98041483ff"/>
          <resource>
            <Binary>
              <id value="31e00cf5-e90a-4fc9-a438-1d98041483ff"/>
              <meta>
                <profile value="https://gematik.de/fhir/StructureDefinition/ErxBinary"/>
              </meta>
              <contentType value="application/pkcs7-mime"/>
              <data value="VmVyb3JkbnVuZ3NkYXRlbiBCZWlzcGllbCBFcnN0ZWxsdW5nIEJlaXNwaWVsIGVBYnJlY2hudW5nc2RhdGVu"/>
            </Binary>
          </resource>
        </entry>
        <entry>
          <link>
            <relation value="item"/>
            <url value="https://gematik.de/fhir/StructureDefinition/ErxReceipt"/>
          </link>
          <fullUrl value="urn:uuid:3370028b-ae75-4cc2-a251-5ec40cb8ef25"/>
          <resource>
            <Bundle>
              <id value="3370028b-ae75-4cc2-a251-5ec40cb8ef25"/>
              <meta>
                <profile value="https://gematik.de/fhir/StructureDefinition/ErxReceipt"/>
              </meta>
              <identifier>
                <system value="https://gematik.de/fhir/NamingSystem/PrescriptionID"/>
                <value value="160.100.000.000.010.12"/>
              </identifier>
              <type value="document"/>
              <timestamp value="2021-05-27T09:30:00Z"/>
              <link>
                <relation value="self"/>
                <url value="https://gematik.erppre.de:443/Task/160.100.000.000.010.12/$close"/>
              </link>
              <entry>
                <fullUrl value="urn:uuid:72eb69c9-fa54-4786-b3e6-a1d440cb275f"/>
                <resource>
                  <Composition>
                    <id value="72eb69c9-fa54-4786-b3e6-a1d440cb275f"/>
                    <meta>
                      <profile value="https://gematik.de/fhir/StructureDefinition/ErxComposition"/>
                    </meta>
                    <extension url="https://gematik.de/fhir/StructureDefinition/BeneficiaryExtension">
                      <valueIdentifier>
                        <system value="https://gematik.de/fhir/NamingSystem/TelematikID"/>
                        <value value="606358757"/>
                      </valueIdentifier>
                    </extension>
                    <status value="final"/>
                    <type>
                      <coding>
                        <system value="https://gematik.de/fhir/CodeSystem/Documenttype"/>
                        <code value="3"/>
                        <display value="Receipt"/>
                      </coding>
                    </type>
                    <date value="2021-05-27T09:30:00Z"/>
                    <author>
                      <reference value="https://gematik.erppre.de:443/Device"/>
                    </author>
                    <title value="Quittung"/>
                    <event>
                      <period>
                        <start value="2021-05-27T08:45:00Z"/>
                        <end value="2021-05-27T09:30:00Z"/>
                      </period>
                    </event>
                  </Composition>
                </resource>
              </entry>
              <entry>
                <fullUrl value="https://gematik.erppre.de:443/Device"/>
                <resource>
                  <Device>
                    <id value="ErxService1"/>
                    <meta>
                      <profile value="https://gematik.de/fhir/StructureDefinition/ErxDevice"/>
                    </meta>
                    <status value="active"/>
                    <serialNumber value="0.3.1"/>
                    <deviceName>
                      <name value="E-Rezept Fachdienst"/>
                      <type value="user-friendly-name"/>
                    </deviceName>
                    <version>
                      <value value="0.3.1"/>
                    </version>
                    <contact>
                      <system value="email"/>
                      <value value="betrieb@gematik.de"/>
                    </contact>
                  </Device>
                </resource>
              </entry>
              <signature>
                <type>
                  <system value="urn:iso-astm:E1762-95:2013"/>
                  <code value="1.2.840.10065.1.12.1.1"/>
                </type>
                <when value="2021-05-27T09:30:00Z"/>
                <who>
                  <reference value="https://gematik.erppre.de:443/Device"/>
                </who>
                <sigFormat value="application/pkcs7-mime"/>
                <data value=""/>
              </signature>
            </Bundle>
          </resource>
        </entry>
        <entry>
          <link>
            <relation value="item"/>
            <url value="http://fhir.abda.de/eRezeptAbgabedaten/StructureDefinition/DAV-PR-ERP-AbgabedatenBundle"/>
          </link>
          <fullUrl value="urn:uuid:0124a84a-7792-4f13-8a39-dfb20176a399"/>
          <resource>
            <Binary>
              <id value="0124a84a-7792-4f13-8a39-dfb20176a399"/>
              <meta>
                <profile value="https://gematik.de/fhir/StructureDefinition/ErxBinary"/>
              </meta>
              <contentType value="application/pkcs7-mime"/>
              <data value="ZUFiZ2FiZWRhdGVuIEJlaXNwaWVsIEVyc3RlbGx1bmcgQmVpc3BpZWwgZUFicmVjaG51bmdzZGF0ZW4="/>
            </Binary>
          </resource>
        </entry>
        <entry>
          <link>
            <relation value="item"/>
            <url value="https://fhir.gkvsv.de/StructureDefinition/GKVSV_PR_ERP_eAbrechnungsdaten"/>
          </link>
          <fullUrl value="urn:uuid:acd37e98-2b59-42f0-b163-51cea0f6c1f8"/>
          <resource>
            <Invoice>
              <id value="acd37e98-2b59-42f0-b163-51cea0f6c1f8"/>
              <meta>
                <profile value="https://fhir.gkvsv.de/StructureDefinition/GKVSV_PR_ERP_eAbrechnungsdaten|1.0.6"/>
              </meta>
              <extension url="https://fhir.gkvsv.de/StructureDefinition/GKVSV_EX_ERP_Irrlaeufer">
                <valueBoolean value="false"/>
              </extension>
              <identifier>
                <system value="https://gematik.de/fhir/NamingSystem/PrescriptionID"/>
                <value value="160.100.000.000.010.12"/>
              </identifier>
              <identifier>
                <system value="https://fhir.gkvsv.de/NamingSystem/GKVSV_NS_Belegnummer"/>
                <value value="2105000000013456789"/>
              </identifier>
              <status value="issued"/>
              <issuer>
                <extension url="https://fhir.gkvsv.de/StructureDefinition/GKVSV_EX_ERP_LE_Sitz">
                  <valueCoding>
                    <system value="https://fhir.gkvsv.de/CodeSystem/GKVSV_CS_ERP_Leistungserbringer_Sitz"/>
                    <code value="1"/>
                  </valueCoding>
                </extension>
                <identifier>
                  <type>
                    <coding>
                      <system value="https://fhir.gkvsv.de/CodeSystem/GKVSV_CS_ERP_Leistungserbringertyp"/>
                      <code value="A"/>
                    </coding>
                  </type>
                  <system value="http://fhir.de/NamingSystem/arge-ik/iknr"/>
                  <value value="123456789"/>
                </identifier>
              </issuer>
              <lineItem>
                <extension url="https://fhir.gkvsv.de/StructureDefinition/GKVSV_EX_ERP_Positionstyp">
                  <valueCodeableConcept>
                    <coding>
                      <system value="https://fhir.gkvsv.de/CodeSystem/GKVSV_CS_ERP_Positionstyp"/>
                      <code value="0"/>
                      <display value="Nullposition"/>
                    </coding>
                  </valueCodeableConcept>
                </extension>
                <extension url="https://fhir.gkvsv.de/StructureDefinition/GKVSV_EX_ERP_VAT_VALUE">
                  <valueMoney>
                    <value value="2.42"/>
                    <currency value="EUR"/>
                  </valueMoney>
                </extension>
                <extension url="https://fhir.gkvsv.de/StructureDefinition/GKVSV_EX_ERP_Import">
                  <valueCodeableConcept>
                    <coding>
                      <system value="https://fhir.gkvsv.de/CodeSystem/GKVSV_CS_ERP_Import"/>
                      <code value="0"/>
                    </coding>
                  </valueCodeableConcept>
                </extension>
                <sequence value="1"/>
                <chargeItemCodeableConcept>
                  <coding>
                    <system value="http://terminology.hl7.org/CodeSystem/v3-NullFlavor"/>
                    <code value="UNC"/>
                  </coding>
                </chargeItemCodeableConcept>
                <priceComponent>
                  <type value="deduction"/>
                  <code>
                    <coding>
                      <system value="https://fhir.gkvsv.de/CodeSystem/GKVSV_CS_ERP_ZuAbschlagKey"/>
                      <code value="R001"/>
                    </coding>
                  </code>
                  <amount>
                    <value value="-1.77"/>
                    <currency value="EUR"/>
                  </amount>
                </priceComponent>
              </lineItem>
            </Invoice>
          </resource>
        </entry>
      </Bundle>
    </resource>
  </entry>
</Bundle>
