<Bundle xmlns="http://hl7.org/fhir">
  <id value="207e63cc-cc80-4c88-9bca-21a59c6d10dc" />
  <meta>
    <profile value="https://fhir.gkvsv.de/StructureDefinition/GKVSV_PR_TA7_Sammelrechnung_Bundle|1.1.0" />
    <tag>
      <display value="Beispiel der TA7/eAbrechnungsdaten." />
    </tag>
    <tag>
      <display value="ACHTUNG! Der fachlich korrekte Inhalt der Beispielinstanz kann nicht gewährleistet werden. Wir sind jederzeit dankbar für Hinweise auf Fehler oder für Verbesserungsvorschläge." />
    </tag>
  </meta>
  <identifier>
    <extension url="https://fhir.gkvsv.de/StructureDefinition/GKVSV_EX_ERP_TA7_Dateinummer">
      <valueString value="00052" />
    </extension>
    <system value="https://fhir.gkvsv.de/NamingSystem/GKVSV_NS_Dateiname" />
    <value value="ARZFHR21052" />
  </identifier>
  <type value="document" />
  <timestamp value="2022-02-10T10:00:00Z" />
  <entry>
    <fullUrl value="urn:uuid:eec5178f-017e-4fb7-86bc-4a4aaf1dcde0" />
    <resource>
      <Composition>
        <id value="eec5178f-017e-4fb7-86bc-4a4aaf1dcde0" />
        <meta>
          <profile value="https://fhir.gkvsv.de/StructureDefinition/GKVSV_PR_TA7_Sammelrechnung_Composition|1.1.0" />
        </meta>
        <extension url="https://fhir.gkvsv.de/StructureDefinition/GKVSV_EX_TA7_IK_Empfaenger">
          <valueIdentifier>
            <system value="http://fhir.de/NamingSystem/arge-ik/iknr" />
            <value value="101575519" />
          </valueIdentifier>
        </extension>
        <extension url="https://fhir.gkvsv.de/StructureDefinition/GKVSV_EX_TA7_IK_Kostentraeger">
          <valueIdentifier>
            <system value="http://fhir.de/NamingSystem/arge-ik/iknr" />
            <value value="101575519" />
          </valueIdentifier>
        </extension>
        <status value="final" />
        <type>
          <coding>
            <system value="https://fhir.gkvsv.de/CodeSystem/GKVSV_CS_ERP_TA7" />
            <code value="SR" />
            <display value="Sammelrechnung" />
          </coding>
        </type>
        <date value="2022-01-31" />
        <author>
          <identifier>
            <system value="http://fhir.de/NamingSystem/arge-ik/iknr" />
            <value value="987654321" />
          </identifier>
        </author>
        <title value="elektronische Sammelrechnung" />
        <section>
          <code>
            <coding>
              <system value="https://fhir.gkvsv.de/CodeSystem/GKVSV_CS_ERP_TA7" />
              <code value="LSR" />
              <display value="Liste der Sammelrechnungen" />
            </coding>
          </code>
          <entry>
            <reference value="urn:uuid:ec403db0-c79a-450a-bc1c-8d2d67bc4bfd" />
          </entry>
        </section>
        <section>
          <code>
            <coding>
              <system value="https://fhir.gkvsv.de/CodeSystem/GKVSV_CS_ERP_TA7" />
              <code value="R" />
              <display value="Rechnungen" />
            </coding>
          </code>
          <entry>
            <reference value="urn:uuid:b69f3a6a-5b0d-4889-b64e-606765c34b0e" />
          </entry>
        </section>
      </Composition>
    </resource>
  </entry>
  <entry>
    <fullUrl value="urn:uuid:ec403db0-c79a-450a-bc1c-8d2d67bc4bfd" />
    <resource>
      <List>
        <id value="ec403db0-c79a-450a-bc1c-8d2d67bc4bfd" />
        <meta>
          <profile value="https://fhir.gkvsv.de/StructureDefinition/GKVSV_PR_TA7_Sammelrechnung_List|1.1.0" />
        </meta>
        <status value="current" />
        <mode value="working" />
        <entry>
          <item>
            <reference value="urn:uuid:207e63cc-cc80-4c88-9bca-21a59c6d10dc" />
          </item>
        </entry>
      </List>
    </resource>
  </entry>
  <entry>
    <fullUrl value="urn:uuid:b69f3a6a-5b0d-4889-b64e-606765c34b0e" />
    <resource>
      <Invoice>
        <id value="b69f3a6a-5b0d-4889-b64e-606765c34b0e" />
        <meta>
          <profile value="https://fhir.gkvsv.de/StructureDefinition/GKVSV_PR_TA7_Rechnung|1.1.0" />
        </meta>
        <extension url="https://fhir.gkvsv.de/StructureDefinition/GKVSV_EX_ERP_TA7_Abrechnungszeitraum">
          <valueDateTime value="2022-01-31" />
        </extension>
        <extension url="https://fhir.gkvsv.de/StructureDefinition/GKVSV_EX_ERP_RezeptBundleReferenz">
          <extension url="lineItem">
            <valueReference>
              <reference value="urn:uuid:e11baecb-5667-4c2b-a95a-e05844988c66" />
            </valueReference>
          </extension>
        </extension>
        <identifier>
          <system value="https://fhir.gkvsv.de/NamingSystem/GKVSV_NS_Sammelrechnungsnummer" />
          <value value="109777509-05-100621" />
        </identifier>
        <status value="issued" />
        <type>
          <coding>
            <system value="https://fhir.gkvsv.de/CodeSystem/GKVSV_CS_ERP_Rechnungsart" />
            <code value="6" />
          </coding>
        </type>
        <recipient>
          <identifier>
            <system value="http://fhir.de/NamingSystem/arge-ik/iknr" />
            <value value="101575519" />
          </identifier>
        </recipient>
        <date value="2022-02-10" />
      </Invoice>
    </resource>
  </entry>
  <entry>
    <fullUrl value="urn:uuid:e11baecb-5667-4c2b-a95a-e05844988c66" />
    <resource>
      <Bundle>
        <id value="e11baecb-5667-4c2b-a95a-e05844988c66" />
        <meta>
          <profile value="https://fhir.gkvsv.de/StructureDefinition/GKVSV_PR_TA7_RezeptBundle|1.1.0" />
        </meta>
        <type value="collection" />
        <entry>
          <link>
            <relation value="item" />
            <url value="https://fhir.kbv.de/StructureDefinition/KBV_PR_ERP_Bundle" />
          </link>
          <fullUrl value="urn:uuid:ba86984d-246c-49b0-9ea3-403fda1f3372" />
          <resource>
            <Binary>
              <id value="ba86984d-246c-49b0-9ea3-403fda1f3372" />
              <meta>
                <profile value="https://gematik.de/fhir/StructureDefinition/ErxBinary" />
              </meta>
              <contentType value="application/pkcs7-mime" />
              <data value="VmVyb3JkbnVuZ3NkYXRlbiBCZWlzcGllbCBFcnN0ZWxsdW5nIEJlaXNwaWVsIGVBYnJlY2hudW5nc2RhdGVu" />
            </Binary>
          </resource>
        </entry>
        <entry>
          <link>
            <relation value="item" />
            <url value="https://gematik.de/fhir/StructureDefinition/ErxReceipt" />
          </link>
          <fullUrl value="urn:uuid:f4bead0c-f712-46d0-85ac-7135e87a0c16" />
          <resource>
            <Binary>
              <id value="f4bead0c-f712-46d0-85ac-7135e87a0c16" />
              <meta>
                <profile value="https://gematik.de/fhir/StructureDefinition/ErxBinary" />
              </meta>
              <contentType value="application/pkcs7-mime" />
              <data value="UXVpdHR1bmdzLUJlaXNwaWVsIEVyc3RlbGx1bmcgQmVpc3BpZWwgZUFicmVjaG51bmdzZGF0ZW4=" />
            </Binary>
          </resource>
        </entry>
        <entry>
          <link>
            <relation value="item" />
            <url value="http://fhir.abda.de/eRezeptAbgabedaten/StructureDefinition/DAV-PR-ERP-AbgabedatenBundle" />
          </link>
          <fullUrl value="urn:uuid:a43c2e1f-8cf5-4903-ac3d-1f29c0786bf7" />
          <resource>
            <Binary>
              <id value="a43c2e1f-8cf5-4903-ac3d-1f29c0786bf7" />
              <meta>
                <profile value="https://gematik.de/fhir/StructureDefinition/ErxBinary" />
              </meta>
              <contentType value="application/pkcs7-mime" />
              <data value="ZUFiZ2FiZWRhdGVuIEJlaXNwaWVsIEVyc3RlbGx1bmcgQmVpc3BpZWwgZUFicmVjaG51bmdzZGF0ZW4=" />
            </Binary>
          </resource>
        </entry>
        <entry>
          <link>
            <relation value="item" />
            <url value="https://fhir.gkvsv.de/StructureDefinition/GKVSV_PR_ERP_eAbrechnungsdaten" />
          </link>
          <fullUrl value="urn:uuid:dfe63712-f776-4926-bd97-59f25b9f972a" />
          <resource>
            <Invoice>
              <id value="dfe63712-f776-4926-bd97-59f25b9f972a" />
              <meta>
                <profile value="https://fhir.gkvsv.de/StructureDefinition/GKVSV_PR_ERP_eAbrechnungsdaten|1.1.0" />
              </meta>
              <extension url="https://fhir.gkvsv.de/StructureDefinition/GKVSV_EX_ERP_Irrlaeufer">
                <valueBoolean value="false" />
              </extension>
              <identifier>
                <system value="https://gematik.de/fhir/NamingSystem/PrescriptionID" />
                <value value="160.100.000.000.019.82" />
              </identifier>
              <identifier>
                <system value="https://fhir.gkvsv.de/NamingSystem/GKVSV_NS_Belegnummer" />
                <value value="2105000000223456789" />
              </identifier>
              <status value="issued" />
              <issuer>
                <extension url="https://fhir.gkvsv.de/StructureDefinition/GKVSV_EX_ERP_LE_Sitz">
                  <valueCoding>
                    <system value="https://fhir.gkvsv.de/CodeSystem/GKVSV_CS_ERP_Leistungserbringer_Sitz" />
                    <code value="1" />
                  </valueCoding>
                </extension>
                <identifier>
                  <type>
                    <coding>
                      <system value="https://fhir.gkvsv.de/CodeSystem/GKVSV_CS_ERP_Leistungserbringertyp" />
                      <code value="A" />
                    </coding>
                  </type>
                  <system value="http://fhir.de/NamingSystem/arge-ik/iknr" />
                  <value value="123456789" />
                </identifier>
              </issuer>
              <lineItem>
                <extension url="https://fhir.gkvsv.de/StructureDefinition/GKVSV_EX_ERP_Positionstyp">
                  <valueCodeableConcept>
                    <coding>
                      <system value="https://fhir.gkvsv.de/CodeSystem/GKVSV_CS_ERP_Positionstyp" />
                      <code value="1" />
                      <display value="übrige Position" />
                    </coding>
                  </valueCodeableConcept>
                </extension>
                <extension url="https://fhir.gkvsv.de/StructureDefinition/GKVSV_EX_ERP_VAT_VALUE">
                  <valueMoney>
                    <value value="2.06" />
                    <currency value="EUR" />
                  </valueMoney>
                </extension>
                <extension url="https://fhir.gkvsv.de/StructureDefinition/GKVSV_EX_ERP_Import">
                  <valueCodeableConcept>
                    <coding>
                      <system value="https://fhir.gkvsv.de/CodeSystem/GKVSV_CS_ERP_Import" />
                      <code value="0" />
                    </coding>
                  </valueCodeableConcept>
                </extension>
                <sequence value="1" />
                <chargeItemCodeableConcept>
                  <coding>
                    <system value="http://terminology.hl7.org/CodeSystem/v3-NullFlavor" />
                    <code value="UNC" />
                  </coding>
                </chargeItemCodeableConcept>
                <priceComponent>
                  <type value="deduction" />
                  <code>
                    <coding>
                      <system value="https://fhir.gkvsv.de/CodeSystem/GKVSV_CS_ERP_ZuAbschlagKey" />
                      <code value="R001" />
                    </coding>
                  </code>
                  <amount>
                    <value value="-1.77" />
                    <currency value="EUR" />
                  </amount>
                </priceComponent>
              </lineItem>
            </Invoice>
          </resource>
        </entry>
      </Bundle>
    </resource>
  </entry>
</Bundle>