<?xml version="1.0" encoding="UTF-8"?>
<Bundle xmlns="http://hl7.org/fhir">
    <id value="c1240295-cde0-4014-a384-c66fa5eaa7eb"/>
    <meta>
        <profile value="https://fhir.kbv.de/StructureDefinition/KBV_PR_ERP_Bundle|1.3"/>
    </meta>
    <identifier>
        <system value="https://gematik.de/fhir/erp/NamingSystem/GEM_ERP_NS_PrescriptionId"/>
        <value value="980.019.938.164.221.32"/>
    </identifier>
    <type value="document"/>
    <timestamp value="2025-10-10T08:30:00Z"/>
    <entry>
        <fullUrl value="urn:uuid:48dbb39b-b8ca-4400-854f-aa7d61e717b7"/>
        <resource>
            <Composition>
                <id value="48dbb39b-b8ca-4400-854f-aa7d61e717b7"/>
                <meta>
                    <profile value="https://fhir.kbv.de/StructureDefinition/KBV_PR_ERP_Composition|1.3"/>
                </meta>
                <extension url="https://fhir.kbv.de/StructureDefinition/KBV_EX_FOR_Legal_basis">
                    <valueCoding>
                        <system value="https://fhir.kbv.de/CodeSystem/KBV_CS_SFHIR_KBV_STATUSKENNZEICHEN"/>
                        <code value="00"/>
                    </valueCoding>
                </extension>
                <status value="final"/>
                <type>
                    <coding>
                        <system value="https://fhir.kbv.de/CodeSystem/KBV_CS_SFHIR_KBV_FORMULAR_ART"/>
                        <code value="e16A"/>
                    </coding>
                </type>
                <subject>
                    <reference value="urn:uuid:a8e0edfc-32ee-43dd-8c24-85331f05e967"/>
                </subject>
                <date value="2025-10-10T08:30:00Z"/>
                <author>
                    <reference value="urn:uuid:2a8154f8-a1c3-4f17-ac51-738933fc2433"/>
                    <type value="Practitioner"/>
                </author>
                <author>
                    <type value="Device"/>
                    <identifier>
                        <system value="https://fhir.kbv.de/NamingSystem/KBV_NS_FOR_Pruefnummer"/>
                        <value value="000000"/>
                    </identifier>
                </author>
                <title value="elektronische Arzneimittelverordnung"/>
                <custodian>
                    <reference value="urn:uuid:52786f0c-d2ea-4c87-97fa-733f30157dcd"/>
                </custodian>
                <section>
                    <code>
                        <coding>
                            <system value="https://fhir.kbv.de/CodeSystem/KBV_CS_ERP_Section_Type"/>
                            <code value="Prescription"/>
                        </coding>
                    </code>
                    <entry>
                        <reference value="urn:uuid:8502b213-3bec-46b1-ab7c-b709c9b9a028"/>
                    </entry>
                </section>
                <section>
                    <code>
                        <coding>
                            <system value="https://fhir.kbv.de/CodeSystem/KBV_CS_ERP_Section_Type"/>
                            <code value="Coverage"/>
                        </coding>
                    </code>
                    <entry>
                        <reference value="urn:uuid:f61ae6c4-e0a6-4755-8aeb-76f12768c4d9"/>
                    </entry>
                </section>
            </Composition>
        </resource>
    </entry>
    <entry>
        <fullUrl value="urn:uuid:8502b213-3bec-46b1-ab7c-b709c9b9a028"/>
        <resource>
            <MedicationRequest>
                <id value="8502b213-3bec-46b1-ab7c-b709c9b9a028"/>
                <meta>
                    <profile value="https://fhir.kbv.de/StructureDefinition/KBV_PR_ERP_Prescription|1.3"/>
                </meta>
                <extension url="https://fhir.kbv.de/StructureDefinition/KBV_EX_ERP_EmergencyServicesFee">
                    <valueBoolean value="false"/>
                </extension>
                <extension url="https://fhir.kbv.de/StructureDefinition/KBV_EX_FOR_SER">
                    <valueBoolean value="false"/>
                </extension>
                <extension url="https://fhir.kbv.de/StructureDefinition/KBV_EX_ERP_Multiple_Prescription">
                    <extension url="Kennzeichen">
                        <valueBoolean value="false"/>
                    </extension>
                </extension>
                <extension url="https://fhir.kbv.de/StructureDefinition/KBV_EX_FOR_StatusCoPayment">
                    <valueCoding>
                        <system value="https://fhir.kbv.de/CodeSystem/KBV_CS_FOR_StatusCoPayment"/>
                        <code value="1"/>
                    </valueCoding>
                </extension>
                <status value="active"/>
                <intent value="order"/>
                <medicationReference>
                    <reference value="urn:uuid:a8898516-4fc1-4eab-8479-cdef1fdf38f8"/>
                </medicationReference>
                <subject>
                    <reference value="urn:uuid:a8e0edfc-32ee-43dd-8c24-85331f05e967"/>
                </subject>
                <authoredOn value="2025-10-01"/>
                <requester>
                    <reference value="urn:uuid:2a8154f8-a1c3-4f17-ac51-738933fc2433"/>
                </requester>
                <insurance>
                    <reference value="urn:uuid:f61ae6c4-e0a6-4755-8aeb-76f12768c4d9"/>
                </insurance>
                <dispenseRequest>
                    <quantity>
                        <value value="1"/>
                        <unit value="Packung"/>
                    </quantity>
                </dispenseRequest>
                <substitution>
                    <allowedBoolean value="false"/>
                </substitution>
            </MedicationRequest>
        </resource>
    </entry>
    <entry>
        <fullUrl value="urn:uuid:a8898516-4fc1-4eab-8479-cdef1fdf38f8"/>
        <resource>
            <Medication>
                <id value="a8898516-4fc1-4eab-8479-cdef1fdf38f8"/>
                <meta>
                    <profile value="https://fhir.kbv.de/StructureDefinition/KBV_PR_ERP_Medication_PZN|1.3"/>
                </meta>
                <extension url="https://fhir.kbv.de/StructureDefinition/KBV_EX_Base_Medication_Type">
                    <valueCodeableConcept>
                        <coding>
                            <system value="http://snomed.info/sct"/>
                            <version value="http://snomed.info/sct/11000274103/version/20240515"/>
                            <code value="763158003"/>
                            <display value="Medicinal product (product)"/>
                        </coding>
                    </valueCodeableConcept>
                </extension>
                <extension url="https://fhir.kbv.de/StructureDefinition/KBV_EX_ERP_Medication_Category">
                    <valueCoding>
                        <system value="https://fhir.kbv.de/CodeSystem/KBV_CS_ERP_Medication_Category"/>
                        <code value="00"/>
                    </valueCoding>
                </extension>
                <extension url="https://fhir.kbv.de/StructureDefinition/KBV_EX_ERP_Medication_Vaccine">
                    <valueBoolean value="false"/>
                </extension>
                <code>
                    <coding>
                        <system value="http://fhir.de/CodeSystem/ifa/pzn"/>
                        <code value="18774742"/>
                    </coding>
                    <text value="Pflegehilfsmittel"/>
                </code>
                <form>
                    <coding>
                        <system value="https://fhir.kbv.de/CodeSystem/KBV_CS_SFHIR_KBV_DARREICHUNGSFORM"/>
                        <code value="---"/>
                    </coding>
                </form>
                <amount>
                    <numerator>
                        <extension url="https://fhir.kbv.de/StructureDefinition/KBV_EX_ERP_Medication_PackagingSize">
                            <valueString value="1"/>
                        </extension>
                        <unit value="St"/>
                    </numerator>
                    <denominator>
                        <value value="1"/>
                    </denominator>
                </amount>
                <ingredient>
                    <itemCodeableConcept>
                        <text value="---"/>
                    </itemCodeableConcept>
                    <strength>
                        <numerator>
                            <value value="1"/>
                            <unit value="St"/>
                        </numerator>
                        <denominator>
                            <value value="1"/>
                            <unit value="St"/>
                        </denominator>
                    </strength>
                </ingredient>
            </Medication>
        </resource>
    </entry>
    <entry>
        <fullUrl value="urn:uuid:a8e0edfc-32ee-43dd-8c24-85331f05e967"/>
        <resource>
            <Patient>
                <id value="a8e0edfc-32ee-43dd-8c24-85331f05e967"/>
                <meta>
                    <profile value="https://fhir.kbv.de/StructureDefinition/KBV_PR_FOR_Patient|1.2"/>
                </meta>
                <identifier>
                    <type>
                        <coding>
                            <system value="http://fhir.de/CodeSystem/identifier-type-de-basis"/>
                            <code value="KVZ10"/>
                        </coding>
                    </type>
                    <system value="http://fhir.de/sid/gkv/kvid-10"/>
                    <value value="T555558879"/>
                </identifier>
                <name>
                    <use value="official"/>
                    <family value="TK-Mustermann">
                        <extension url="http://hl7.org/fhir/StructureDefinition/humanname-own-name">
                            <valueString value="TK-Mustermann"/>
                        </extension>
                    </family>
                    <given value="Max"/>
                </name>
                <birthDate value="1995-01-01"/>
                <address>
                    <type value="both"/>
                    <line value="Bramfelder Str. 140">
                        <extension url="http://hl7.org/fhir/StructureDefinition/iso21090-ADXP-houseNumber">
                            <valueString value="140"/>
                        </extension>
                        <extension url="http://hl7.org/fhir/StructureDefinition/iso21090-ADXP-streetName">
                            <valueString value="Bramfelder Str."/>
                        </extension>
                    </line>
                    <city value="Hamburg"/>
                    <postalCode value="22305"/>
                    <country value="D"/>
                </address>
            </Patient>
        </resource>
    </entry>
    <entry>
        <fullUrl value="urn:uuid:2a8154f8-a1c3-4f17-ac51-738933fc2433"/>
        <resource>
            <Practitioner>
                <id value="2a8154f8-a1c3-4f17-ac51-738933fc2433"/>
                <meta>
                    <profile value="https://fhir.kbv.de/StructureDefinition/KBV_PR_FOR_Practitioner|1.2"/>
                </meta>
                <identifier>
                    <type>
                        <coding>
                            <system value="http://terminology.hl7.org/CodeSystem/v2-0203"/>
                            <code value="LANR"/>
                        </coding>
                    </type>
                    <system value="https://fhir.kbv.de/NamingSystem/KBV_NS_Base_ANR"/>
                    <value value="000000000"/>
                </identifier>
                <name>
                    <use value="official"/>
                    <family value="Apo">
                        <extension url="http://hl7.org/fhir/StructureDefinition/humanname-own-name">
                            <valueString value="Apo"/>
                        </extension>
                    </family>
                    <given value="Apo"/>
                </name>
                <qualification>
                    <code>
                        <coding>
                            <system value="https://fhir.kbv.de/CodeSystem/KBV_CS_FOR_Qualification_Type"/>
                            <code value="00"/>
                        </coding>
                    </code>
                </qualification>
                <qualification>
                    <code>
                        <coding>
                            <system value="https://fhir.kbv.de/CodeSystem/KBV_CS_FOR_Berufsbezeichnung"/>
                            <code value="Berufsbezeichnung"/>
                        </coding>
                        <text value="Apo"/>
                    </code>
                </qualification>
            </Practitioner>
        </resource>
    </entry>
    <entry>
        <fullUrl value="urn:uuid:52786f0c-d2ea-4c87-97fa-733f30157dcd"/>
        <resource>
            <Organization>
                <id value="52786f0c-d2ea-4c87-97fa-733f30157dcd"/>
                <meta>
                    <profile value="https://fhir.kbv.de/StructureDefinition/KBV_PR_FOR_Organization|1.2"/>
                </meta>
                <identifier>
                    <type>
                        <coding>
                            <system value="http://terminology.hl7.org/CodeSystem/v2-0203"/>
                            <code value="BSNR"/>
                        </coding>
                    </type>
                    <system value="https://fhir.kbv.de/NamingSystem/KBV_NS_Base_BSNR"/>
                    <value value="000000000"/>
                </identifier>
                <telecom>
                    <system value="phone"/>
                    <value value="Apo"/>
                </telecom>
                <address>
                    <type value="both"/>
                    <line value="Apo Apo">
                        <extension url="http://hl7.org/fhir/StructureDefinition/iso21090-ADXP-streetName">
                            <valueString value="Apo"/>
                        </extension>
                        <extension url="http://hl7.org/fhir/StructureDefinition/iso21090-ADXP-houseNumber">
                            <valueString value="Apo"/>
                        </extension>
                    </line>
                    <city value="Apo"/>
                </address>
            </Organization>
        </resource>
    </entry>
    <entry>
        <fullUrl value="urn:uuid:f61ae6c4-e0a6-4755-8aeb-76f12768c4d9"/>
        <resource>
            <Coverage>
                <id value="f61ae6c4-e0a6-4755-8aeb-76f12768c4d9"/>
                <meta>
                    <profile value="https://fhir.kbv.de/StructureDefinition/KBV_PR_FOR_Coverage|1.2"/>
                </meta>
                <extension url="http://fhir.de/StructureDefinition/gkv/besondere-personengruppe">
                    <valueCoding>
                        <system value="https://fhir.kbv.de/CodeSystem/KBV_CS_SFHIR_KBV_PERSONENGRUPPE"/>
                        <code value="00"/>
                    </valueCoding>
                </extension>
                <extension url="http://fhir.de/StructureDefinition/gkv/dmp-kennzeichen">
                    <valueCoding>
                        <system value="https://fhir.kbv.de/CodeSystem/KBV_CS_SFHIR_KBV_DMP"/>
                        <code value="00"/>
                    </valueCoding>
                </extension>
                <extension url="http://fhir.de/StructureDefinition/gkv/versichertenart">
                    <valueCoding>
                        <system value="https://fhir.kbv.de/CodeSystem/KBV_CS_SFHIR_KBV_VERSICHERTENSTATUS"/>
                        <code value="1"/>
                    </valueCoding>
                </extension>
                <status value="active"/>
                <type>
                    <coding>
                        <system value="http://fhir.de/CodeSystem/versicherungsart-de-basis"/>
                        <code value="GKV"/>
                    </coding>
                </type>
                <beneficiary>
                    <reference value="urn:uuid:a8e0edfc-32ee-43dd-8c24-85331f05e967"/>
                </beneficiary>
                <payor>
                    <identifier>
                        <system value="http://fhir.de/sid/arge-ik/iknr"/>
                        <value value="181575519"/>
                    </identifier>
                    <display value="Techniker Krankenkasse"/>
                </payor>
            </Coverage>
        </resource>
    </entry>
</Bundle>