<?xml version="1.0" encoding="UTF-8"?>
<Bundle xmlns="http://hl7.org/fhir">
  <id value="7b9f267a-02e9-4f4d-8ac7-aa82d18b25ef"/>
  <meta>
    <profile value="http://fhir.abda.de/eRezeptAbgabedaten/StructureDefinition/DAV-PKV-PR-ERP-AbgabedatenBundle|1.4"/>
    <tag>
      <display value="Beispiel RezeptAbgabedatenPKV Bundle (PZN-4 Mehrfachverordnung 2/4)"/>
    </tag>
    <tag>
      <display value="ACHTUNG! Der fachlich korrekte Inhalt der Beispielinstanz kann nicht gewährleistet werden. Wir sind jederzeit dankbar für Hinweise auf Fehler oder für Verbesserungsvorschläge."/>
    </tag>
  </meta>
  <identifier>
    <system value="https://gematik.de/fhir/erp/NamingSystem/GEM_ERP_NS_PrescriptionId"/>
    <value value="200.497.827.696.678.76"/>
  </identifier>
  <type value="document"/>
  <timestamp value="2025-04-11T10:30:00Z"/>
  <entry>
    <fullUrl value="urn:uuid:02de03b8-b837-4d31-a45c-21e9ce2befd9"/>
    <resource>
      <Composition xmlns="http://hl7.org/fhir">
        <id value="02de03b8-b837-4d31-a45c-21e9ce2befd9"/>
        <meta>
          <profile value="http://fhir.abda.de/eRezeptAbgabedaten/StructureDefinition/DAV-PKV-PR-ERP-AbgabedatenComposition|1.4"/>
        </meta>
        <status value="final"/>
        <type>
          <coding>
            <system value="http://fhir.abda.de/eRezeptAbgabedaten/CodeSystem/DAV-CS-ERP-CompositionTypes"/>
            <code value="ERezeptAbgabedaten"/>
          </coding>
        </type>
        <date value="2025-04-11T10:30:00Z"/>
        <author>
          <reference value="urn:uuid:f12df073-0a20-4155-87b0-6c8629c5805d"/>
        </author>
        <title value="ERezeptAbgabedaten"/>
        <section>
          <title value="Abgabeinformationen"/>
          <entry>
            <reference value="urn:uuid:878a7f6e-1976-45f4-8941-8222ec95f5a2"/>
          </entry>
        </section>
        <section>
          <title value="Apotheke"/>
          <entry>
            <reference value="urn:uuid:f12df073-0a20-4155-87b0-6c8629c5805d"/>
          </entry>
        </section>
      </Composition>
    </resource>
  </entry>
  <entry>
    <fullUrl value="urn:uuid:f12df073-0a20-4155-87b0-6c8629c5805d"/>
    <resource>
      <Organization xmlns="http://hl7.org/fhir">
        <id value="f12df073-0a20-4155-87b0-6c8629c5805d"/>
        <meta>
          <profile value="http://fhir.abda.de/eRezeptAbgabedaten/StructureDefinition/DAV-PKV-PR-ERP-Apotheke|1.4"/>
        </meta>
        <identifier>
          <system value="http://fhir.de/sid/arge-ik/iknr"/>
          <value value="308412345"/>
        </identifier>
        <name value="Adler-Apotheke"/>
        <address>
          <type value="physical"/>
          <line value="Taunusstraße 89">
            <extension url="http://hl7.org/fhir/StructureDefinition/iso21090-ADXP-streetName">
              <valueString value="Taunusstraße"/>
            </extension>
            <extension url="http://hl7.org/fhir/StructureDefinition/iso21090-ADXP-houseNumber">
              <valueString value="89"/>
            </extension>
          </line>
          <city value="Langen"/>
          <postalCode value="63225"/>
          <country value="D"/>
        </address>
      </Organization>
    </resource>
  </entry>
  <entry>
    <fullUrl value="urn:uuid:878a7f6e-1976-45f4-8941-8222ec95f5a2"/>
    <resource>
      <MedicationDispense xmlns="http://hl7.org/fhir">
        <id value="878a7f6e-1976-45f4-8941-8222ec95f5a2"/>
        <meta>
          <profile value="http://fhir.abda.de/eRezeptAbgabedaten/StructureDefinition/DAV-PKV-PR-ERP-Abgabeinformationen|1.4"/>
        </meta>
        <extension url="http://fhir.abda.de/eRezeptAbgabedaten/StructureDefinition/DAV-EX-ERP-Abrechnungszeilen">
          <valueReference>
            <reference value="urn:uuid:02765512-5c03-4d66-ad22-3e1046ca3de8"/>
          </valueReference>
        </extension>
        <extension url="http://fhir.abda.de/eRezeptAbgabedaten/StructureDefinition/DAV-PKV-EX-ERP-AbrechnungsTyp">
          <valueCodeableConcept>
            <coding>
              <system value="http://fhir.abda.de/eRezeptAbgabedaten/CodeSystem/DAV-PKV-CS-ERP-AbrechnungsTyp"/>
              <code value="1"/>
            </coding>
          </valueCodeableConcept>
        </extension>
        <status value="completed"/>
        <medicationCodeableConcept>
          <coding>
            <system value="http://terminology.hl7.org/CodeSystem/data-absent-reason"/>
            <code value="not-applicable"/>
          </coding>
        </medicationCodeableConcept>
        <performer>
          <actor>
            <reference value="urn:uuid:f12df073-0a20-4155-87b0-6c8629c5805d"/>
          </actor>
        </performer>
        <authorizingPrescription>
          <identifier>
            <system value="https://gematik.de/fhir/erp/NamingSystem/GEM_ERP_NS_PrescriptionId"/>
            <value value="200.497.827.696.678.76"/>
          </identifier>
        </authorizingPrescription>
        <type>
          <coding>
            <system value="http://fhir.abda.de/eRezeptAbgabedaten/CodeSystem/DAV-CS-ERP-MedicationDispenseTyp"/>
            <code value="Abgabeinformationen"/>
          </coding>
        </type>
        <whenHandedOver value="2025-04-11"/>
      </MedicationDispense>
    </resource>
  </entry>
  <entry>
    <fullUrl value="urn:uuid:02765512-5c03-4d66-ad22-3e1046ca3de8"/>
    <resource>
      <Invoice xmlns="http://hl7.org/fhir">
        <id value="02765512-5c03-4d66-ad22-3e1046ca3de8"/>
        <meta>
          <profile value="http://fhir.abda.de/eRezeptAbgabedaten/StructureDefinition/DAV-PKV-PR-ERP-Abrechnungszeilen|1.4"/>
        </meta>
        <status value="issued"/>
        <type>
          <coding>
            <system value="http://fhir.abda.de/eRezeptAbgabedaten/CodeSystem/DAV-CS-ERP-InvoiceTyp"/>
            <code value="Abrechnungszeilen"/>
          </coding>
        </type>
        <lineItem>
          <sequence value="1"/>
          <chargeItemCodeableConcept>
            <coding>
              <system value="http://fhir.de/CodeSystem/ifa/pzn"/>
              <code value="02532741"/>
            </coding>
            <text value="L-thyroxin 75 Henning Tabletten 100 St"/>
          </chargeItemCodeableConcept>
          <priceComponent>
            <extension url="http://fhir.abda.de/eRezeptAbgabedaten/StructureDefinition/DAV-EX-ERP-MwStSatz">
              <valueDecimal value="19.00"/>
            </extension>
            <extension url="http://fhir.abda.de/eRezeptAbgabedaten/StructureDefinition/DAV-EX-ERP-KostenVersicherter">
              <extension url="Kategorie">
                <valueCodeableConcept>
                  <coding>
                    <system value="http://fhir.abda.de/eRezeptAbgabedaten/CodeSystem/DAV-PKV-CS-ERP-KostenVersicherterKategorie"/>
                    <code value="0"/>
                  </coding>
                </valueCodeableConcept>
              </extension>
              <extension url="Kostenbetrag">
                <valueMoney>
                  <value value="0.00"/>
                  <currency value="EUR"/>
                </valueMoney>
              </extension>
            </extension>
            <type value="informational"/>
            <factor value="1"/>
            <amount>
              <value value="15.40"/>
              <currency value="EUR"/>
            </amount>
          </priceComponent>
        </lineItem>
        <totalGross>
          <extension url="http://fhir.abda.de/eRezeptAbgabedaten/StructureDefinition/DAV-EX-ERP-Gesamtzuzahlung">
            <valueMoney>
              <value value="0.00"/>
              <currency value="EUR"/>
            </valueMoney>
          </extension>
          <value value="15.40"/>
          <currency value="EUR"/>
        </totalGross>
      </Invoice>
    </resource>
  </entry>
</Bundle>