<Bundle xmlns="http://hl7.org/fhir">
  <id value="1c7f7645-7d3f-47bb-a3b2-32bf0038e5aa" />
  <meta>
    <profile value="https://fhir.gkvsv.de/StructureDefinition/GKVSV_PR_TA7_Sammelrechnung_Bundle|1.0.6" />
    <tag>
      <display value="Beispiel der TA7/eAbrechnungsdaten." />
    </tag>
    <tag>
      <display value="ACHTUNG! Der fachlich korrekte Inhalt der Beispielinstanz kann nicht gew채hrleistet werden. Wir sind jederzeit dankbar f체r Hinweise auf Fehler oder f체r Verbesserungsvorschl채ge." />
    </tag>
  </meta>
  <identifier>
    <extension url="https://fhir.gkvsv.de/StructureDefinition/GKVSV_EX_ERP_TA7_Dateinummer">
      <valueString value="00054" />
    </extension>
    <system value="https://fhir.gkvsv.de/NamingSystem/GKVSV_NS_Dateiname" />
    <value value="ARZFHR21054" />
  </identifier>
  <type value="document" />
  <timestamp value="2021-06-10T10:00:00Z" />
  <entry>
    <fullUrl value="urn:uuid:7f0a5718-220c-492f-999e-29fa7796e4a9" />
    <resource>
      <Composition>
        <id value="7f0a5718-220c-492f-999e-29fa7796e4a9" />
        <meta>
          <profile value="https://fhir.gkvsv.de/StructureDefinition/GKVSV_PR_TA7_Sammelrechnung_Composition|1.0.6" />
        </meta>
        <extension url="https://fhir.gkvsv.de/StructureDefinition/GKVSV_EX_TA7_IK_Empfaenger">
          <valueIdentifier>
            <system value="http://fhir.de/NamingSystem/arge-ik/iknr" />
            <value value="101575519" />
          </valueIdentifier>
        </extension>
        <extension url="https://fhir.gkvsv.de/StructureDefinition/GKVSV_EX_TA7_IK_Kostentraeger">
          <valueIdentifier>
            <system value="http://fhir.de/NamingSystem/arge-ik/iknr" />
            <value value="101575519" />
          </valueIdentifier>
        </extension>
        <status value="final" />
        <type>
          <coding>
            <system value="https://fhir.gkvsv.de/CodeSystem/GKVSV_CS_ERP_TA7" />
            <code value="SR" />
            <display value="Sammelrechnung" />
          </coding>
        </type>
        <date value="2021-05-31" />
        <author>
          <identifier>
            <system value="http://fhir.de/NamingSystem/arge-ik/iknr" />
            <value value="987654321" />
          </identifier>
        </author>
        <title value="elektronische Sammelrechnung" />
        <section>
          <code>
            <coding>
              <system value="https://fhir.gkvsv.de/CodeSystem/GKVSV_CS_ERP_TA7" />
              <code value="LSR" />
              <display value="Liste der Sammelrechnungen" />
            </coding>
          </code>
          <entry>
            <reference value="urn:uuid:0d3d5609-1eb7-4551-b04f-9b8529c0bb2b" />
          </entry>
        </section>
        <section>
          <code>
            <coding>
              <system value="https://fhir.gkvsv.de/CodeSystem/GKVSV_CS_ERP_TA7" />
              <code value="R" />
              <display value="Rechnungen" />
            </coding>
          </code>
          <entry>
            <reference value="urn:uuid:157ecd61-52e3-48eb-80cf-48d58d8a6af1" />
          </entry>
        </section>
      </Composition>
    </resource>
  </entry>
  <entry>
    <fullUrl value="urn:uuid:0d3d5609-1eb7-4551-b04f-9b8529c0bb2b" />
    <resource>
      <List>
        <id value="0d3d5609-1eb7-4551-b04f-9b8529c0bb2b" />
        <meta>
          <profile value="https://fhir.gkvsv.de/StructureDefinition/GKVSV_PR_TA7_Sammelrechnung_List|1.0.6" />
        </meta>
        <status value="current" />
        <mode value="working" />
        <entry>
          <item>
            <reference value="urn:uuid:1c7f7645-7d3f-47bb-a3b2-32bf0038e5aa" />
          </item>
        </entry>
      </List>
    </resource>
  </entry>
  <entry>
    <fullUrl value="urn:uuid:157ecd61-52e3-48eb-80cf-48d58d8a6af1" />
    <resource>
      <Invoice>
        <id value="157ecd61-52e3-48eb-80cf-48d58d8a6af1" />
        <meta>
          <profile value="https://fhir.gkvsv.de/StructureDefinition/GKVSV_PR_TA7_Rechnung|1.0.6" />
        </meta>
        <extension url="https://fhir.gkvsv.de/StructureDefinition/GKVSV_EX_ERP_TA7_Abrechnungszeitraum">
          <valueDateTime value="2021-05-31" />
        </extension>
        <extension url="https://fhir.gkvsv.de/StructureDefinition/GKVSV_EX_ERP_RezeptBundleReferenz">
          <extension url="lineItem">
            <valueReference>
              <reference value="urn:uuid:d9eb36f7-02ad-460f-8bbe-6fdcf88f43f4" />
            </valueReference>
          </extension>
        </extension>
        <identifier>
          <system value="https://fhir.gkvsv.de/NamingSystem/GKVSV_NS_Sammelrechnungsnummer" />
          <value value="109777509-05-100621" />
        </identifier>
        <status value="issued" />
        <type>
          <coding>
            <system value="https://fhir.gkvsv.de/CodeSystem/GKVSV_CS_ERP_Rechnungsart" />
            <code value="6" />
          </coding>
        </type>
        <recipient>
          <identifier>
            <system value="http://fhir.de/NamingSystem/arge-ik/iknr" />
            <value value="101575519" />
          </identifier>
        </recipient>
        <date value="2021-06-10" />
      </Invoice>
    </resource>
  </entry>
  <entry>
    <fullUrl value="urn:uuid:d9eb36f7-02ad-460f-8bbe-6fdcf88f43f4" />
    <resource>
      <Bundle>
        <id value="d9eb36f7-02ad-460f-8bbe-6fdcf88f43f4" />
        <meta>
          <profile value="https://fhir.gkvsv.de/StructureDefinition/GKVSV_PR_TA7_RezeptBundle|1.0.6" />
        </meta>
        <type value="collection" />
        <entry>
          <link>
            <relation value="item" />
            <url value="https://fhir.kbv.de/StructureDefinition/KBV_PR_ERP_Bundle" />
          </link>
          <fullUrl value="urn:uuid:fcc71bd5-44a6-429d-8a42-64c84bd899b6" />
          <resource>
            <Binary>
              <id value="fcc71bd5-44a6-429d-8a42-64c84bd899b6" />
              <meta>
                <profile value="https://gematik.de/fhir/StructureDefinition/ErxBinary" />
              </meta>
              <contentType value="application/pkcs7-mime" />
              <data value="VmVyb3JkbnVuZ3NkYXRlbiBCZWlzcGllbCBFcnN0ZWxsdW5nIEJlaXNwaWVsIGVBYnJlY2hudW5nc2RhdGVu" />
            </Binary>
          </resource>
        </entry>
        <entry>
          <link>
            <relation value="item" />
            <url value="https://gematik.de/fhir/StructureDefinition/ErxReceipt" />
          </link>
          <fullUrl value="urn:uuid:a23587b8-1259-4f3a-8f5c-11e9b45cdc00" />
          <resource>
            <Bundle>
              <id value="a23587b8-1259-4f3a-8f5c-11e9b45cdc00" />
              <meta>
                <profile value="https://gematik.de/fhir/StructureDefinition/ErxReceipt" />
              </meta>
              <identifier>
                <system value="https://gematik.de/fhir/NamingSystem/PrescriptionID" />
                <value value="160.100.000.000.019.82" />
              </identifier>
              <type value="document" />
              <timestamp value="2021-05-27T09:30:00Z" />
              <link>
                <relation value="self" />
                <url value="https://gematik.erppre.de:443/Task/160.100.000.000.019.82/$close" />
              </link>
              <entry>
                <fullUrl value="urn:uuid:08afc317-0cb7-4567-a73e-fd3ed97c0cc4" />
                <resource>
                  <Composition>
                    <id value="08afc317-0cb7-4567-a73e-fd3ed97c0cc4" />
                    <meta>
                      <profile value="https://gematik.de/fhir/StructureDefinition/ErxComposition" />
                    </meta>
                    <extension url="https://gematik.de/fhir/StructureDefinition/BeneficiaryExtension">
                      <valueIdentifier>
                        <system value="https://gematik.de/fhir/NamingSystem/TelematikID" />
                        <value value="606358757" />
                      </valueIdentifier>
                    </extension>
                    <status value="final" />
                    <type>
                      <coding>
                        <system value="https://gematik.de/fhir/CodeSystem/Documenttype" />
                        <code value="3" />
                        <display value="Receipt" />
                      </coding>
                    </type>
                    <date value="2021-05-27T09:30:00Z" />
                    <author>
                      <reference value="https://gematik.erppre.de:443/Device" />
                    </author>
                    <title value="Quittung" />
                    <event>
                      <period>
                        <start value="2021-05-27T08:45:00Z" />
                        <end value="2021-05-27T09:30:00Z" />
                      </period>
                    </event>
                  </Composition>
                </resource>
              </entry>
              <entry>
                <fullUrl value="https://gematik.erppre.de:443/Device" />
                <resource>
                  <Device>
                    <id value="1" />
                    <meta>
                      <profile value="https://gematik.de/fhir/StructureDefinition/ErxDevice" />
                    </meta>
                    <status value="active" />
                    <serialNumber value="0.3.1" />
                    <deviceName>
                      <name value="E-Rezept Fachdienst" />
                      <type value="user-friendly-name" />
                    </deviceName>
                    <version>
                      <value value="0.3.1" />
                    </version>
                    <contact>
                      <system value="email" />
                      <value value="betrieb@gematik.de" />
                    </contact>
                  </Device>
                </resource>
              </entry>
              <signature>
                <type>
                  <system value="urn:iso-astm:E1762-95:2013" />
                  <code value="1.2.840.10065.1.12.1.1" />
                </type>
                <when value="2021-05-27T09:30:00Z" />
                <who>
                  <reference value="https://gematik.erppre.de:443/Device" />
                </who>
                <sigFormat value="application/pkcs7-mime" />
                <data value="" />
              </signature>
            </Bundle>
          </resource>
        </entry>
        <entry>
          <link>
            <relation value="item" />
            <url value="http://fhir.abda.de/eRezeptAbgabedaten/StructureDefinition/DAV-PR-ERP-AbgabedatenBundle" />
          </link>
          <fullUrl value="urn:uuid:63d7ed89-24b0-439d-968f-c9d5c785a67c" />
          <resource>
            <Binary>
              <id value="63d7ed89-24b0-439d-968f-c9d5c785a67c" />
              <meta>
                <profile value="https://gematik.de/fhir/StructureDefinition/ErxBinary" />
              </meta>
              <contentType value="application/pkcs7-mime" />
              <data value="ZUFiZ2FiZWRhdGVuIEJlaXNwaWVsIEVyc3RlbGx1bmcgQmVpc3BpZWwgZUFicmVjaG51bmdzZGF0ZW4=" />
            </Binary>
          </resource>
        </entry>
        <entry>
          <link>
            <relation value="item" />
            <url value="https://fhir.gkvsv.de/StructureDefinition/GKVSV_PR_ERP_eAbrechnungsdaten" />
          </link>
          <fullUrl value="urn:uuid:9bc3169c-2eed-43f4-9436-540ae601f92c" />
          <resource>
            <Invoice>
              <id value="9bc3169c-2eed-43f4-9436-540ae601f92c" />
              <meta>
                <profile value="https://fhir.gkvsv.de/StructureDefinition/GKVSV_PR_ERP_eAbrechnungsdaten|1.0.6" />
              </meta>
              <extension url="https://fhir.gkvsv.de/StructureDefinition/GKVSV_EX_ERP_Irrlaeufer">
                <valueBoolean value="false" />
              </extension>
              <identifier>
                <system value="https://gematik.de/fhir/NamingSystem/PrescriptionID" />
                <value value="160.100.000.000.019.82" />
              </identifier>
              <identifier>
                <system value="https://fhir.gkvsv.de/NamingSystem/GKVSV_NS_Belegnummer" />
                <value value="2105000000243456789" />
              </identifier>
              <status value="issued" />
              <issuer>
                <extension url="https://fhir.gkvsv.de/StructureDefinition/GKVSV_EX_ERP_LE_Sitz">
                  <valueCoding>
                    <system value="https://fhir.gkvsv.de/CodeSystem/GKVSV_CS_ERP_Leistungserbringer_Sitz" />
                    <code value="1" />
                  </valueCoding>
                </extension>
                <identifier>
                  <type>
                    <coding>
                      <system value="https://fhir.gkvsv.de/CodeSystem/GKVSV_CS_ERP_Leistungserbringertyp" />
                      <code value="A" />
                    </coding>
                  </type>
                  <system value="http://fhir.de/NamingSystem/arge-ik/iknr" />
                  <value value="123456789" />
                </identifier>
              </issuer>
              <lineItem>
                <extension url="https://fhir.gkvsv.de/StructureDefinition/GKVSV_EX_ERP_Positionstyp">
                  <valueCodeableConcept>
                    <coding>
                      <system value="https://fhir.gkvsv.de/CodeSystem/GKVSV_CS_ERP_Positionstyp" />
                      <code value="1" />
                      <display value="체brige Position" />
                    </coding>
                  </valueCodeableConcept>
                </extension>
                <extension url="https://fhir.gkvsv.de/StructureDefinition/GKVSV_EX_ERP_VAT_VALUE">
                  <valueMoney>
                    <value value="0.00" />
                    <currency value="EUR" />
                  </valueMoney>
                </extension>
                <extension url="https://fhir.gkvsv.de/StructureDefinition/GKVSV_EX_ERP_Import">
                  <valueCodeableConcept>
                    <coding>
                      <system value="https://fhir.gkvsv.de/CodeSystem/GKVSV_CS_ERP_Import" />
                      <code value="0" />
                    </coding>
                  </valueCodeableConcept>
                </extension>
                <sequence value="1" />
                <chargeItemCodeableConcept>
                  <coding>
                    <system value="http://terminology.hl7.org/CodeSystem/v3-NullFlavor" />
                    <code value="UNC" />
                  </coding>
                </chargeItemCodeableConcept>
                <priceComponent>
                  <type value="deduction" />
                  <code>
                    <coding>
                      <system value="https://fhir.gkvsv.de/CodeSystem/GKVSV_CS_ERP_ZuAbschlagKey" />
                      <code value="R001" />
                    </coding>
                  </code>
                  <amount>
                    <value value="-1.77" />
                    <currency value="EUR" />
                  </amount>
                </priceComponent>
                <priceComponent>
                  <type value="deduction" />
                  <code>
                    <coding>
                      <system value="https://fhir.gkvsv.de/CodeSystem/GKVSV_CS_ERP_ZuAbschlagKey" />
                      <code value="R004" />
                    </coding>
                  </code>
                  <amount>
                    <value value="-1.41" />
                    <currency value="EUR" />
                  </amount>
                </priceComponent>
              </lineItem>
            </Invoice>
          </resource>
        </entry>
      </Bundle>
    </resource>
  </entry>
</Bundle>