<?xml version="1.0" encoding="UTF-8"?>
<Parameters xmlns="http://hl7.org/fhir">
    <id value="bfae4728-21aa-4c2a-b2bb-b3ac4d04e2dc"/>
    <meta>
        <profile value="https://gematik.de/fhir/erp/StructureDefinition/GEM_ERP_PR_PAR_CloseOperation_Input|1.4"/>
        <tag>
            <display value="Beispiel MedicationDispense PKV PZN Bsp 17 (multiple medications)"/>
        </tag>
        <tag>
            <display value="ACHTUNG! Der fachlich korrekte Inhalt der Beispielinstanz kann nicht gew채hrleistet werden. Wir sind jederzeit dankbar f체r Hinweise auf Fehler oder f체r Verbesserungsvorschl채ge."/>
        </tag>
    </meta>
    <parameter>
        <name value="rxDispensation"/>
        <part>
            <name value="medicationDispense"/>
            <resource>
                 <MedicationDispense xmlns="http://hl7.org/fhir">
                    <id value="ee2ce580-5ba3-464a-aa4f-333f16e87e2d"/>
                    <meta>
                        <profile value="https://gematik.de/fhir/erp/StructureDefinition/GEM_ERP_PR_MedicationDispense|1.4"/>
                    </meta>
                    <identifier>
                        <system value="https://gematik.de/fhir/erp/NamingSystem/GEM_ERP_NS_PrescriptionId"/>
                        <value value="200.082.658.364.487.24"/>
                    </identifier>
                    <status value="completed"/>
                    <medicationReference>
                        <reference value="4fdfe574-a9b8-4032-943c-1af2e883f86a"/>
                    </medicationReference>
                    <subject>
                        <identifier>
                            <system value="http://fhir.de/sid/gkv/kvid-10"/>
                            <value value="P123464233"/>
                        </identifier>
                    </subject>
                    <performer>
                        <actor>
                            <identifier>
                                <system value="https://gematik.de/fhir/sid/telematik-id"/>
                                <value value="3-abc-1234567890"/>
                            </identifier>
                        </actor>
                    </performer>
                    <quantity> <!-- Angabe der abgegebenen Packungsanzahl -->
                        <value value="2"/>
                        <system value="http://unitsofmeasure.org"/>
                        <code value="{Package}"/>
                    </quantity>
                    <whenHandedOver value="2025-02-03"/>
                    <substitution> <!-- "Austausch/ersetzen des Arzneimittels bei Abgabe" z.B.: Wenn bei einer PZN Verordnung die abgegebene PZN nicht der verordneten entspricht. -->
                        <wasSubstituted value="false"/>
                    </substitution>
                </MedicationDispense>
            </resource>
        </part>
        <part>
            <name value="medication"/>
            <resource>
                 <Medication xmlns="http://hl7.org/fhir">
                    <id value="4fdfe574-a9b8-4032-943c-1af2e883f86a"/>
                    <meta>
                        <profile value="https://gematik.de/fhir/erp/StructureDefinition/GEM_ERP_PR_Medication|1.4"/>
                    </meta>
                    <code>
                        <coding>
                            <system value="http://fhir.de/CodeSystem/ifa/pzn"/>
                            <code value="06437028"/>
                        </coding>
                        <text value="Doxycyclin 100-1A Pharma Tabletten N2"/>
                    </code>
                    <form>
                        <coding>
                            <system value="https://fhir.kbv.de/CodeSystem/KBV_CS_SFHIR_KBV_DARREICHUNGSFORM"/>
                            <code value="TAB"/>
                        </coding>
                    </form>
                    <amount>
                        <numerator>
                            <extension url="https://gematik.de/fhir/epa-medication/StructureDefinition/medication-packaging-size-extension">
                                <valueString value="20"/>
                            </extension>
                            <unit value="St"/>
                        </numerator>
                        <denominator>
                            <value value="1"/>
                        </denominator>
                    </amount>
                    <ingredient>
                        <itemCodeableConcept>
                            <text value="Doxycyclin"/>
                        </itemCodeableConcept>
                        <strength>
                            <numerator>
                                <value value="100"/>
                                <unit value="mg"/>
                                <system>
                                    <extension url="http://hl7.org/fhir/StructureDefinition/data-absent-reason">
                                        <valueCode value="unknown"/>
                                    </extension>
                                </system>
                                <code>
                                    <extension url="http://hl7.org/fhir/StructureDefinition/data-absent-reason">
                                        <valueCode value="unknown"/>
                                    </extension>
                                </code>
                            </numerator>
                            <denominator>
                                <value value="1"/>
                                <system>
                                    <extension url="http://hl7.org/fhir/StructureDefinition/data-absent-reason">
                                        <valueCode value="unknown"/>
                                    </extension>
                                </system>
                                <code>
                                    <extension url="http://hl7.org/fhir/StructureDefinition/data-absent-reason">
                                        <valueCode value="unknown"/>
                                    </extension>
                                </code>
                            </denominator>
                        </strength>
                    </ingredient>
                    <batch>
                        <lotNumber value="A123456789-1"/>
                    </batch>
                </Medication>
            </resource>
        </part>
    </parameter>
    <parameter>
        <name value="rxDispensation"/>
        <part>
            <name value="medicationDispense"/>
            <resource>
                 <MedicationDispense xmlns="http://hl7.org/fhir">
                    <id value="a1caeabe-e2eb-4b03-8c54-d8d8cf07efe2"/>
                    <meta>
                        <profile value="https://gematik.de/fhir/erp/StructureDefinition/GEM_ERP_PR_MedicationDispense|1.4"/>
                    </meta>
                    <identifier>
                        <system value="https://gematik.de/fhir/erp/NamingSystem/GEM_ERP_NS_PrescriptionId"/>
                        <value value="200.082.658.364.487.24"/>
                    </identifier>
                    <status value="completed"/>
                    <medicationReference>
                        <reference value="urn:uuid:1941d8c2-d0eb-4782-8700-810b931f7a02"/>
                    </medicationReference>
                    <subject>
                        <identifier>
                            <system value="http://fhir.de/sid/gkv/kvid-10"/>
                            <value value="P123464233"/>
                        </identifier>
                    </subject>
                    <performer>
                        <actor>
                            <identifier>
                                <system value="https://gematik.de/fhir/sid/telematik-id"/>
                                <value value="3-abc-1234567890"/>
                            </identifier>
                        </actor>
                    </performer>
                    <quantity> <!-- Angabe der abgegebenen Packungsanzahl -->
                        <value value="1" />
                        <system value="http://unitsofmeasure.org" />
                        <code value="{Package}" />
                    </quantity>
                    <whenHandedOver value="2025-02-03"/>
                    <substitution> <!-- "Austausch/ersetzen des Arzneimittels bei Abgabe" z.B.: Wenn bei einer PZN Verordnung die abgegebene PZN nicht der verordneten entspricht. -->
                        <wasSubstituted value="false"/>
                    </substitution>
                </MedicationDispense>
            </resource>
        </part>
        <part>
            <name value="medication"/>
            <resource>
                 <Medication xmlns="http://hl7.org/fhir">
                    <id value="1941d8c2-d0eb-4782-8700-810b931f7a02"/>
                    <meta>
                        <profile value="https://gematik.de/fhir/erp/StructureDefinition/GEM_ERP_PR_Medication|1.4"/>
                    </meta>
                    <code>
                        <coding>
                            <system value="http://fhir.de/CodeSystem/ifa/pzn"/>
                            <code value="06437011"/>
                        </coding>
                        <text value="Doxycyclin 100-1A Pharma Tabletten N1"/>
                    </code>
                    <form>
                        <coding>
                            <system value="https://fhir.kbv.de/CodeSystem/KBV_CS_SFHIR_KBV_DARREICHUNGSFORM"/>
                            <code value="TAB"/>
                            <display value="Tabletten"/>
                        </coding>
                    </form>
                    <amount>
                        <numerator>
                            <extension url="https://gematik.de/fhir/epa-medication/StructureDefinition/medication-packaging-size-extension">
                                <valueString value="10"/>
                            </extension>
                            <unit value="St"/>
                        </numerator>
                        <denominator>
                            <value value="1"/>
                        </denominator>
                    </amount>
                    <ingredient>
                        <itemCodeableConcept>
                            <text value="Doxycyclin"/>
                        </itemCodeableConcept>
                        <strength>
                            <numerator>
                                <value value="100"/>
                                <unit value="mg"/>
                                <system>
                                    <extension url="http://hl7.org/fhir/StructureDefinition/data-absent-reason">
                                        <valueCode value="unknown"/>
                                    </extension>
                                </system>
                                <code>
                                    <extension url="http://hl7.org/fhir/StructureDefinition/data-absent-reason">
                                        <valueCode value="unknown"/>
                                    </extension>
                                </code>
                            </numerator>
                            <denominator>
                                <value value="1"/>
                                <system>
                                    <extension url="http://hl7.org/fhir/StructureDefinition/data-absent-reason">
                                        <valueCode value="unknown"/>
                                    </extension>
                                </system>
                                <code>
                                    <extension url="http://hl7.org/fhir/StructureDefinition/data-absent-reason">
                                        <valueCode value="unknown"/>
                                    </extension>
                                </code>
                            </denominator>
                        </strength>
                    </ingredient>
                    <batch>
                        <lotNumber value="A123456789-1"/>
                    </batch>
                </Medication>
            </resource>
        </part>
    </parameter>
</Parameters>