<?xml version="1.0" encoding="UTF-8"?>
<Bundle xmlns="http://hl7.org/fhir">
    <id value="aa4bf637-5501-4f52-a525-a97af9f93c27"/>
    <meta>
        <profile value="https://fhir.kbv.de/StructureDefinition/KBV_PR_ERP_Bundle|1.2"/>
    </meta>
    <identifier>
        <system value="https://gematik.de/fhir/erp/NamingSystem/GEM_ERP_NS_PrescriptionId"/>
        <value value="200.082.658.364.487.24"/>
    </identifier>
    <type value="document"/>
    <timestamp value="2025-02-03T08:30:00Z"/>
    <entry>
        <fullUrl value="http://pvs.praxis.local/fhir/Composition/cf2ee3af-72a6-40dd-a180-f215c0f1567e"/>
        <resource>
            <Composition xmlns="http://hl7.org/fhir">
                <id value="cf2ee3af-72a6-40dd-a180-f215c0f1567e"/>
                <meta>
                    <profile value="https://fhir.kbv.de/StructureDefinition/KBV_PR_ERP_Composition|1.2"/>
                </meta>
                <extension url="https://fhir.kbv.de/StructureDefinition/KBV_EX_FOR_Legal_basis">
                    <valueCoding>
                        <system value="https://fhir.kbv.de/CodeSystem/KBV_CS_SFHIR_KBV_STATUSKENNZEICHEN"/>
                        <code value="00"/>
                    </valueCoding>
                </extension>
                <extension url="https://fhir.kbv.de/StructureDefinition/KBV_EX_FOR_PKV_Tariff">
                    <valueCoding>
                        <system value="https://fhir.kbv.de/CodeSystem/KBV_CS_SFHIR_KBV_PKV_TARIFF"/>
                        <code value="01"/>
                    </valueCoding>
                </extension>
                <status value="final"/>
                <type>
                    <coding>
                        <system value="https://fhir.kbv.de/CodeSystem/KBV_CS_SFHIR_KBV_FORMULAR_ART"/>
                        <code value="e16A"/>
                    </coding>
                </type>
                <subject>
                    <reference value="Patient/888e76ad-0562-46c9-8617-95c1438aa33c"/>
                </subject>
                <date value="2025-02-03T08:00:00Z"/>
                <author>
                    <reference value="Practitioner/8efa6e58-0065-4906-a8e8-a0af40ea4f4f"/>
                    <type value="Practitioner"/>
                </author>
                <author>
                    <type value="Device"/>
                    <identifier>
                        <system value="https://fhir.kbv.de/NamingSystem/KBV_NS_FOR_Pruefnummer"/>
                        <value value="Y/400/2107/36/999"/>
                    </identifier>
                </author>
                <title value="elektronische Arzneimittelverordnung"/>
                <custodian>
                    <reference value="Organization/6ee9c60e-2713-4174-a4f1-86be1131e2cb"/>
                </custodian>
                <section>
                    <code>
                        <coding>
                            <system value="https://fhir.kbv.de/CodeSystem/KBV_CS_ERP_Section_Type"/>
                            <code value="Prescription"/>
                        </coding>
                    </code>
                    <entry>
                        <reference value="MedicationRequest/adc19918-d6db-4d69-8fb5-0f58869a793e"/>
                    </entry>
                </section>
                <section>
                    <code>
                        <coding>
                            <system value="https://fhir.kbv.de/CodeSystem/KBV_CS_ERP_Section_Type"/>
                            <code value="Coverage"/>
                        </coding>
                    </code>
                    <entry>
                        <reference value="Coverage/c8a34f69-021f-46a5-8620-16bf12e96b25"/>
                    </entry>
                </section>
            </Composition>
        </resource>
    </entry>
    <entry>
        <fullUrl value="http://pvs.praxis.local/fhir/MedicationRequest/adc19918-d6db-4d69-8fb5-0f58869a793e"/>
        <resource>
            <MedicationRequest xmlns="http://hl7.org/fhir">
                <id value="adc19918-d6db-4d69-8fb5-0f58869a793e"/>
                <meta>
                    <profile value="https://fhir.kbv.de/StructureDefinition/KBV_PR_ERP_Prescription|1.2"/>
                </meta>
                <extension url="https://fhir.kbv.de/StructureDefinition/KBV_EX_ERP_EmergencyServicesFee">
                    <valueBoolean value="false"/>
                </extension>
                <extension url="https://fhir.kbv.de/StructureDefinition/KBV_EX_FOR_SER">
                    <valueBoolean value="false"/>
                </extension>
                <extension url="https://fhir.kbv.de/StructureDefinition/KBV_EX_ERP_Multiple_Prescription">
                    <extension url="Kennzeichen">
                        <valueBoolean value="false"/>
                    </extension>
                </extension>
                <status value="active"/>
                <intent value="order"/>
                <medicationReference>
                    <reference value="Medication/fb1c1e4f-4a0c-4035-ac7f-17fc09807450"/>
                </medicationReference>
                <subject>
                    <reference value="Patient/888e76ad-0562-46c9-8617-95c1438aa33c"/>
                </subject>
                <authoredOn value="2025-02-03"/>
                <requester>
                    <reference value="Practitioner/8efa6e58-0065-4906-a8e8-a0af40ea4f4f"/>
                </requester>
                <insurance>
                    <reference value="Coverage/c8a34f69-021f-46a5-8620-16bf12e96b25"/>
                </insurance>
                <dosageInstruction>
                    <extension url="https://fhir.kbv.de/StructureDefinition/KBV_EX_ERP_DosageFlag">
                        <valueBoolean value="false"/>
                    </extension>
                </dosageInstruction>
                <dispenseRequest>
                    <quantity>
                        <value value="1"/>
                        <unit value="Packung"/>
                    </quantity>
                </dispenseRequest>
                <substitution>
                    <allowedBoolean value="true"/>
                </substitution>
            </MedicationRequest>
        </resource>
    </entry>
    <entry>
        <fullUrl value="http://pvs.praxis.local/fhir/Medication/fb1c1e4f-4a0c-4035-ac7f-17fc09807450"/>
        <resource>
            <Medication xmlns="http://hl7.org/fhir">
                <id value="fb1c1e4f-4a0c-4035-ac7f-17fc09807450"/>
                <meta>
                    <profile value="https://fhir.kbv.de/StructureDefinition/KBV_PR_ERP_Medication_PZN|1.2"/>
                </meta>
                <extension url="https://fhir.kbv.de/StructureDefinition/KBV_EX_Base_Medication_Type">
                    <valueCodeableConcept>
                        <coding>
                            <system value="http://snomed.info/sct"/>
                            <version value="http://snomed.info/sct/11000274103/version/20240515"/>
                            <code value="763158003"/>
                            <display value="Medicinal product (product)"/>
                        </coding>
                    </valueCodeableConcept>
                </extension>
                <extension url="https://fhir.kbv.de/StructureDefinition/KBV_EX_ERP_Medication_Category">
                    <valueCoding>
                        <system value="https://fhir.kbv.de/CodeSystem/KBV_CS_ERP_Medication_Category"/>
                        <code value="00"/>
                    </valueCoding>
                </extension>
                <extension url="https://fhir.kbv.de/StructureDefinition/KBV_EX_ERP_Medication_Vaccine">
                    <valueBoolean value="false"/>
                </extension>
                <extension url="http://fhir.de/StructureDefinition/normgroesse">
                    <valueCode value="N3"/>
                </extension>
                <code>
                    <coding>
                        <system value="http://fhir.de/CodeSystem/ifa/pzn"/>
                        <code value="06437034"/>
                    </coding>
                    <text value="Doxycyclin 100 - 1 A Pharma® 50 Tbl. N3"/>
                </code>
                <form>
                    <coding>
                        <system value="https://fhir.kbv.de/CodeSystem/KBV_CS_SFHIR_KBV_DARREICHUNGSFORM"/>
                        <code value="TAB"/>
                    </coding>
                </form>
                <amount>
                    <numerator>
                        <extension url="https://fhir.kbv.de/StructureDefinition/KBV_EX_ERP_Medication_PackagingSize">
                            <valueString value="50"/>
                        </extension>
                        <unit value="Stück"/>
                    </numerator>
                    <denominator>
                        <value value="1"/>
                    </denominator>
                </amount>
                <ingredient>
                    <itemCodeableConcept>
                        <coding>
                            <system value="http://fhir.de/CodeSystem/ask"/>
                            <code value="03876"/>
                        </coding>
                        <text value="Doxycyclin"/>
                    </itemCodeableConcept>
                    <strength>
                        <numerator>
                            <value value="100"/>
                            <unit value="mg"/>
                        </numerator>
                        <denominator>
                            <value value="1"/>
                        </denominator>
                    </strength>
                </ingredient>
            </Medication>
        </resource>
    </entry>
    <entry>
        <fullUrl value="http://pvs.praxis.local/fhir/Patient/888e76ad-0562-46c9-8617-95c1438aa33c"/>
        <resource>
            <Patient xmlns="http://hl7.org/fhir">
                <id value="888e76ad-0562-46c9-8617-95c1438aa33c"/>
                <meta>
                    <profile value="https://fhir.kbv.de/StructureDefinition/KBV_PR_FOR_Patient|1.2"/>
                </meta>
                <identifier>
                    <type>
                        <coding>
                            <system value="http://fhir.de/CodeSystem/identifier-type-de-basis"/>
                            <code value="KVZ10"/>
                        </coding>
                    </type>
                    <system value="http://fhir.de/sid/pkv/kvid-10"/>
                    <value value="P123464233"/>
                </identifier>
                <name>
                    <use value="official"/>
                    <family value="Privati">
                        <extension url="http://hl7.org/fhir/StructureDefinition/humanname-own-name">
                            <valueString value="Privati"/>
                        </extension>
                    </family>
                    <given value="Paolo"/>
                </name>
                <birthDate value="1935-01-06"/>
                <address>
                    <type value="both"/>
                    <line value="Blumenweg 18">
                        <extension url="http://hl7.org/fhir/StructureDefinition/iso21090-ADXP-streetName">
                            <valueString value="Blumenweg"/>
                        </extension>
                        <extension url="http://hl7.org/fhir/StructureDefinition/iso21090-ADXP-houseNumber">
                            <valueString value="18"/>
                        </extension>
                    </line>
                    <city value="Esens"/>
                    <postalCode value="26427"/>
                    <country value="D"/>
                </address>
            </Patient>
        </resource>
    </entry>
    <entry>
        <fullUrl value="http://pvs.praxis.local/fhir/Practitioner/8efa6e58-0065-4906-a8e8-a0af40ea4f4f"/>
        <resource>
            <Practitioner xmlns="http://hl7.org/fhir">
                <id value="8efa6e58-0065-4906-a8e8-a0af40ea4f4f"/>
                <meta>
                    <profile value="https://fhir.kbv.de/StructureDefinition/KBV_PR_FOR_Practitioner|1.2"/>
                </meta>
                <identifier>
                    <type>
                        <coding>
                            <system value="http://terminology.hl7.org/CodeSystem/v2-0203"/>
                            <code value="LANR"/>
                        </coding>
                    </type>
                    <system value="https://fhir.kbv.de/NamingSystem/KBV_NS_Base_ANR"/>
                    <value value="987654423"/>
                </identifier>
                <identifier>
                    <type>
                        <coding>
                            <system value="http://terminology.hl7.org/CodeSystem/v2-0203"/>
                            <code value="PRN"/>
                        </coding>
                    </type>
                    <system value="https://gematik.de/fhir/sid/telematik-id"/>
                    <value value="1-748382202"/>
                </identifier>
                <name>
                    <use value="official"/>
                    <family value="Schneider">
                        <extension url="http://hl7.org/fhir/StructureDefinition/humanname-own-name">
                            <valueString value="Schneider"/>
                        </extension>
                    </family>
                    <given value="Emma"/>
                    <prefix value="Dr. med.">
                        <extension url="http://hl7.org/fhir/StructureDefinition/iso21090-EN-qualifier">
                            <valueCode value="AC"/>
                        </extension>
                    </prefix>
                </name>
                <qualification>
                    <code>
                        <coding>
                            <system value="https://fhir.kbv.de/CodeSystem/KBV_CS_FOR_Qualification_Type"/>
                            <code value="00"/>
                        </coding>
                    </code>
                </qualification>
                <qualification>
                    <code>
                        <coding>
                            <system value="https://fhir.kbv.de/CodeSystem/KBV_CS_FOR_Berufsbezeichnung"/>
                            <code value="Berufsbezeichnung"/>
                        </coding>
                        <text value="Fachärztin für Innere Medizin"/>
                    </code>
                </qualification>
            </Practitioner>
        </resource>
    </entry>
    <entry>
        <fullUrl value="http://pvs.praxis.local/fhir/Organization/6ee9c60e-2713-4174-a4f1-86be1131e2cb"/>
        <resource>
            <Organization xmlns="http://hl7.org/fhir">
                <id value="6ee9c60e-2713-4174-a4f1-86be1131e2cb"/>
                <meta>
                    <profile value="https://fhir.kbv.de/StructureDefinition/KBV_PR_FOR_Organization|1.2"/>
                </meta>
                <identifier>
                    <type>
                        <coding>
                            <system value="http://terminology.hl7.org/CodeSystem/v2-0203"/>
                            <code value="BSNR"/>
                        </coding>
                    </type>
                    <system value="https://fhir.kbv.de/NamingSystem/KBV_NS_Base_BSNR"/>
                    <value value="721111100"/>
                </identifier>
                <name value="MVZ"/>
                <telecom>
                    <system value="phone"/>
                    <value value="030369258147"/>
                </telecom>
                <telecom>
                    <system value="fax"/>
                    <value value="030123456789"/>
                </telecom>
                <telecom>
                    <system value="email"/>
                    <value value="mvz@e-mail.de"/>
                </telecom>
                <address>
                    <type value="both"/>
                    <line value="Herbert-Lewin-Platz 2">
                        <extension url="http://hl7.org/fhir/StructureDefinition/iso21090-ADXP-streetName">
                            <valueString value="Herbert-Lewin-Platz"/>
                        </extension>
                        <extension url="http://hl7.org/fhir/StructureDefinition/iso21090-ADXP-houseNumber">
                            <valueString value="2"/>
                        </extension>
                    </line>
                    <city value="Berlin"/>
                    <postalCode value="10623"/>
                    <country value="D"/>
                </address>
            </Organization>
        </resource>
    </entry>
    <entry>
        <fullUrl value="http://pvs.praxis.local/fhir/Coverage/c8a34f69-021f-46a5-8620-16bf12e96b25"/>
        <resource>
            <Coverage xmlns="http://hl7.org/fhir">
                <id value="c8a34f69-021f-46a5-8620-16bf12e96b25"/>
                <meta>
                    <profile value="https://fhir.kbv.de/StructureDefinition/KBV_PR_FOR_Coverage|1.2"/>
                </meta>
                <extension url="http://fhir.de/StructureDefinition/gkv/besondere-personengruppe">
                    <valueCoding>
                        <system value="https://fhir.kbv.de/CodeSystem/KBV_CS_SFHIR_KBV_PERSONENGRUPPE"/>
                        <code value="00"/>
                    </valueCoding>
                </extension>
                <extension url="http://fhir.de/StructureDefinition/gkv/dmp-kennzeichen">
                    <valueCoding>
                        <system value="https://fhir.kbv.de/CodeSystem/KBV_CS_SFHIR_KBV_DMP"/>
                        <code value="00"/>
                    </valueCoding>
                </extension>
                <extension url="http://fhir.de/StructureDefinition/gkv/versichertenart">
                    <valueCoding>
                        <system value="https://fhir.kbv.de/CodeSystem/KBV_CS_SFHIR_KBV_VERSICHERTENSTATUS"/>
                        <code value="1"/>
                    </valueCoding>
                </extension>
                <status value="active"/>
                <type>
                    <coding>
                        <system value="http://fhir.de/CodeSystem/versicherungsart-de-basis"/>
                        <code value="PKV"/>
                    </coding>
                </type>
                <beneficiary>
                    <reference value="Patient/888e76ad-0562-46c9-8617-95c1438aa33c"/>
                </beneficiary>
                <payor>
                    <identifier>
                        <system value="http://fhir.de/sid/arge-ik/iknr"/>
                        <value value="168140346"/>
                    </identifier>
                    <display value="Allianz Private Krankenversicherung"/>
                </payor>
            </Coverage>
        </resource>
    </entry>
</Bundle>