<Bundle xmlns="http://hl7.org/fhir">
  <id value="dc815a7b-b689-429c-8cca-f23c5967082d" />
  <meta>
    <profile value="https://fhir.gkvsv.de/StructureDefinition/GKVSV_PR_TA7_Sammelrechnung_Bundle|1.2" />
    <tag>
      <display value="Beispiel der TA7/eAbrechnungsdaten." />
    </tag>
    <tag>
      <display value="ACHTUNG! Der fachlich korrekte Inhalt der Beispielinstanz kann nicht gewährleistet werden. Wir sind jederzeit dankbar für Hinweise auf Fehler oder für Verbesserungsvorschläge." />
    </tag>
  </meta>
  <identifier>
    <extension url="https://fhir.gkvsv.de/StructureDefinition/GKVSV_EX_ERP_TA7_Dateinummer">
      <valueString value="00001" />
    </extension>
    <system value="https://fhir.gkvsv.de/NamingSystem/GKVSV_NS_Dateiname" />
    <value value="ARZFHR21001" />
  </identifier>
  <type value="document" />
  <timestamp value="2021-06-10T10:00:00Z" />
  <entry>
    <fullUrl value="urn:uuid:785754ef-18f5-4074-b0f0-29efebe9c736" />
    <resource>
      <Composition>
        <id value="785754ef-18f5-4074-b0f0-29efebe9c736" />
        <meta>
          <profile value="https://fhir.gkvsv.de/StructureDefinition/GKVSV_PR_TA7_Sammelrechnung_Composition|1.2" />
        </meta>
        <extension url="https://fhir.gkvsv.de/StructureDefinition/GKVSV_EX_TA7_IK_Empfaenger">
          <valueIdentifier>
            <system value="http://fhir.de/NamingSystem/arge-ik/iknr" />
            <value value="104212516" />
          </valueIdentifier>
        </extension>
        <extension url="https://fhir.gkvsv.de/StructureDefinition/GKVSV_EX_TA7_IK_Kostentraeger">
          <valueIdentifier>
            <system value="http://fhir.de/NamingSystem/arge-ik/iknr" />
            <value value="104212505" />
          </valueIdentifier>
        </extension>
        <status value="final" />
        <type>
          <coding>
            <system value="https://fhir.gkvsv.de/CodeSystem/GKVSV_CS_ERP_TA7" />
            <code value="SR" />
            <display value="Sammelrechnung" />
          </coding>
        </type>
        <date value="2021-05-31" />
        <author>
          <identifier>
            <system value="http://fhir.de/NamingSystem/arge-ik/iknr" />
            <value value="987654321" />
          </identifier>
        </author>
        <title value="elektronische Sammelrechnung" />
        <section>
          <code>
            <coding>
              <system value="https://fhir.gkvsv.de/CodeSystem/GKVSV_CS_ERP_TA7" />
              <code value="LSR" />
              <display value="Liste der Sammelrechnungen" />
            </coding>
          </code>
          <entry>
            <reference value="urn:uuid:62dbd1d5-22da-4c83-8807-48b870a61f5d" />
          </entry>
        </section>
        <section>
          <code>
            <coding>
              <system value="https://fhir.gkvsv.de/CodeSystem/GKVSV_CS_ERP_TA7" />
              <code value="R" />
              <display value="Rechnungen" />
            </coding>
          </code>
          <entry>
            <reference value="urn:uuid:4f25d6a5-1c68-487f-91c5-70e31d2f2d79" />
          </entry>
        </section>
      </Composition>
    </resource>
  </entry>
  <entry>
    <fullUrl value="urn:uuid:62dbd1d5-22da-4c83-8807-48b870a61f5d" />
    <resource>
      <List>
        <id value="62dbd1d5-22da-4c83-8807-48b870a61f5d" />
        <meta>
          <profile value="https://fhir.gkvsv.de/StructureDefinition/GKVSV_PR_TA7_Sammelrechnung_List|1.2" />
        </meta>
        <status value="current" />
        <mode value="working" />
        <entry>
          <item>
            <reference value="Bundle/dc815a7b-b689-429c-8cca-f23c5967082d" />
          </item>
        </entry>
      </List>
    </resource>
  </entry>
  <entry>
    <fullUrl value="urn:uuid:4f25d6a5-1c68-487f-91c5-70e31d2f2d79" />
    <resource>
      <Invoice>
        <id value="4f25d6a5-1c68-487f-91c5-70e31d2f2d79" />
        <meta>
          <profile value="https://fhir.gkvsv.de/StructureDefinition/GKVSV_PR_TA7_Rechnung|1.2" />
        </meta>
        <extension url="https://fhir.gkvsv.de/StructureDefinition/GKVSV_EX_ERP_TA7_Abrechnungszeitraum">
          <valueDateTime value="2021-05-31" />
        </extension>
        <extension url="https://fhir.gkvsv.de/StructureDefinition/GKVSV_EX_ERP_RezeptBundleReferenz">
          <extension url="lineItem">
            <valueReference>
              <reference value="urn:uuid:db1d2807-a54c-4799-a5be-ab555a77d103" />
            </valueReference>
          </extension>
        </extension>
        <identifier>
          <system value="https://fhir.gkvsv.de/NamingSystem/GKVSV_NS_Sammelrechnungsnummer" />
          <value value="104212505-01-100621" />
        </identifier>
        <status value="issued" />
        <type>
          <coding>
            <system value="https://fhir.gkvsv.de/CodeSystem/GKVSV_CS_ERP_Rechnungsart" />
            <code value="3" />
          </coding>
        </type>
        <recipient>
          <identifier>
            <system value="http://fhir.de/NamingSystem/arge-ik/iknr" />
            <value value="104212505" />
          </identifier>
        </recipient>
        <date value="2021-06-10" />
      </Invoice>
    </resource>
  </entry>
  <entry>
    <fullUrl value="urn:uuid:db1d2807-a54c-4799-a5be-ab555a77d103" />
    <resource>
      <Bundle>
        <id value="db1d2807-a54c-4799-a5be-ab555a77d103" />
        <meta>
          <profile value="https://fhir.gkvsv.de/StructureDefinition/GKVSV_PR_TA7_RezeptBundle|1.2" />
        </meta>
        <type value="collection" />
        <entry>
          <link>
            <relation value="item" />
            <url value="https://fhir.kbv.de/StructureDefinition/KBV_PR_ERP_Bundle" />
          </link>
          <fullUrl value="urn:uuid:7cbfa3cd-598e-4afc-aa99-9cc93bbb0253" />
          <resource>
            <Binary>
              <id value="7cbfa3cd-598e-4afc-aa99-9cc93bbb0253" />
              <meta>
                <profile value="https://gematik.de/fhir/StructureDefinition/ErxBinary" />
              </meta>
              <contentType value="application/pkcs7-mime" />
              <data value="VmVyb3JkbnVuZ3NkYXRlbiBCZWlzcGllbCBFcnN0ZWxsdW5nIEJlaXNwaWVsIGVBYnJlY2hudW5nc2RhdGVu" />
            </Binary>
          </resource>
        </entry>
        <entry>
          <link>
            <relation value="item" />
            <url value="https://gematik.de/fhir/StructureDefinition/ErxReceipt" />
          </link>
          <fullUrl value="urn:uuid:58fbedb2-54ed-4ef8-9b48-650b7b4a28ad" />
          <resource>
            <Binary>
              <id value="58fbedb2-54ed-4ef8-9b48-650b7b4a28ad" />
              <meta>
                <profile value="https://gematik.de/fhir/StructureDefinition/ErxBinary" />
              </meta>
              <contentType value="application/pkcs7-mime" />
              <data value="UXVpdHR1bmdzLUJlaXNwaWVsIEVyc3RlbGx1bmcgQmVpc3BpZWwgZUFicmVjaG51bmdzZGF0ZW4=" />
            </Binary>
          </resource>
        </entry>
        <entry>
          <link>
            <relation value="item" />
            <url value="http://fhir.abda.de/eRezeptAbgabedaten/StructureDefinition/DAV-PR-ERP-AbgabedatenBundle" />
          </link>
          <fullUrl value="urn:uuid:ea421499-ec05-433d-95e6-c6e40cf45721" />
          <resource>
            <Binary>
              <id value="ea421499-ec05-433d-95e6-c6e40cf45721" />
              <meta>
                <profile value="https://gematik.de/fhir/StructureDefinition/ErxBinary" />
              </meta>
              <contentType value="application/pkcs7-mime" />
              <data value="ZUFiZ2FiZWRhdGVuIEJlaXNwaWVsIEVyc3RlbGx1bmcgQmVpc3BpZWwgZUFicmVjaG51bmdzZGF0ZW4=" />
            </Binary>
          </resource>
        </entry>
        <entry>
          <link>
            <relation value="item" />
            <url value="https://fhir.gkvsv.de/StructureDefinition/GKVSV_PR_ERP_eAbrechnungsdaten" />
          </link>
          <fullUrl value="urn:uuid:a47f834d-3c2b-4751-a547-58d1f3a8cfa8" />
          <resource>
            <Invoice>
              <id value="a47f834d-3c2b-4751-a547-58d1f3a8cfa8" />
              <meta>
                <profile value="https://fhir.gkvsv.de/StructureDefinition/GKVSV_PR_ERP_eAbrechnungsdaten|1.2" />
              </meta>
              <extension url="https://fhir.gkvsv.de/StructureDefinition/GKVSV_EX_ERP_Irrlaeufer">
                <valueBoolean value="false" />
              </extension>
              <identifier>
                <system value="https://gematik.de/fhir/NamingSystem/PrescriptionID" />
                <value value="160.100.000.000.023.70" />
              </identifier>
              <identifier>
                <system value="https://fhir.gkvsv.de/NamingSystem/GKVSV_NS_Belegnummer" />
                <value value="2105523450050000001" />
              </identifier>
              <status value="issued" />
              <issuer>
                <extension url="https://fhir.gkvsv.de/StructureDefinition/GKVSV_EX_ERP_LE_Sitz">
                  <valueCoding>
                    <system value="https://fhir.gkvsv.de/CodeSystem/GKVSV_CS_ERP_Leistungserbringer_Sitz" />
                    <code value="1" />
                  </valueCoding>
                </extension>
                <identifier>
                  <type>
                    <coding>
                      <system value="https://fhir.gkvsv.de/CodeSystem/GKVSV_CS_ERP_Leistungserbringertyp" />
                      <code value="A" />
                    </coding>
                  </type>
                  <system value="http://fhir.de/NamingSystem/arge-ik/iknr" />
                  <value value="123456789" />
                </identifier>
              </issuer>
              <lineItem>
                <extension url="https://fhir.gkvsv.de/StructureDefinition/GKVSV_EX_ERP_Positionstyp">
                  <valueCodeableConcept>
                    <coding>
                      <system value="https://fhir.gkvsv.de/CodeSystem/GKVSV_CS_ERP_Positionstyp" />
                      <code value="1" />
                      <display value="übrige Position" />
                    </coding>
                  </valueCodeableConcept>
                </extension>
                <extension url="https://fhir.gkvsv.de/StructureDefinition/GKVSV_EX_ERP_VAT_VALUE">
                  <valueMoney>
                    <value value="2.47" />
                    <currency value="EUR" />
                  </valueMoney>
                </extension>
                <extension url="https://fhir.gkvsv.de/StructureDefinition/GKVSV_EX_ERP_Import">
                  <valueCodeableConcept>
                    <coding>
                      <system value="https://fhir.gkvsv.de/CodeSystem/GKVSV_CS_ERP_Import" />
                      <code value="0" />
                    </coding>
                  </valueCodeableConcept>
                </extension>
                <sequence value="1" />
                <chargeItemCodeableConcept>
                  <coding>
                    <system value="http://terminology.hl7.org/CodeSystem/v3-NullFlavor" />
                    <code value="UNC" />
                  </coding>
                </chargeItemCodeableConcept>
                <priceComponent>
                  <type value="deduction" />
                  <code>
                    <coding>
                      <system value="https://fhir.gkvsv.de/CodeSystem/GKVSV_CS_ERP_ZuAbschlagKey" />
                      <code value="R001" />
                    </coding>
                  </code>
                  <amount>
                    <value value="-1.77" />
                    <currency value="EUR" />
                  </amount>
                </priceComponent>
              </lineItem>
            </Invoice>
          </resource>
        </entry>
      </Bundle>
    </resource>
  </entry>
</Bundle>