<?xml version="1.0" encoding="UTF-8"?>
<Bundle xmlns="http://hl7.org/fhir">
    <id value="ba08bfce-64be-4575-9c4f-ca6708cd2db5"/>
    <meta>
        <profile value="http://fhir.abda.de/eRezeptAbgabedaten/StructureDefinition/DAV-PKV-PR-ERP-AbgabedatenBundle|1.2"/>
        <tag>
            <display value="Beispiel RezeptAbgabedatenPKV Bundle (REZ-12)"/>
        </tag>
        <tag>
            <display value="ACHTUNG! Der fachlich korrekte Inhalt der Beispielinstanz kann nicht gewährleistet werden. Wir sind jederzeit dankbar für Hinweise auf Fehler oder für Verbesserungsvorschläge."/>
        </tag>
    </meta>
    <identifier>
        <system value="https://gematik.de/fhir/erp/NamingSystem/GEM_ERP_NS_PrescriptionId"/>
        <value value="209.100.612.180.208.16"/>
    </identifier>
    <type value="document"/>
    <timestamp value="2023-07-06T11:30:00Z"/>
    <entry>
        <fullUrl value="urn:uuid:9b69da59-b65f-4764-b5dd-bcd5714425d5"/>
        <resource>
            <Composition>
                <id value="9b69da59-b65f-4764-b5dd-bcd5714425d5"/>
                <meta>
                    <profile value="http://fhir.abda.de/eRezeptAbgabedaten/StructureDefinition/DAV-PKV-PR-ERP-AbgabedatenComposition|1.2"/>
                </meta>
                <status value="final"/>
                <type>
                    <coding>
                        <system value="http://fhir.abda.de/eRezeptAbgabedaten/CodeSystem/DAV-CS-ERP-CompositionTypes"/>
                        <code value="ERezeptAbgabedaten"/>
                    </coding>
                </type>
                <date value="2023-07-06T11:30:00Z"/>
                <author>
                    <reference value="urn:uuid:46bfb5c0-36de-49ae-a99e-9a73d2c1ac95"/>
                </author>
                <title value="ERezeptAbgabedaten"/>
                <section>
                    <title value="Abgabeinformationen"/>
                    <entry>
                        <reference value="urn:uuid:4ea32dd1-7372-4e51-8902-d7ac980d5d42"/>
                    </entry>
                </section>
                <section>
                    <title value="Apotheke"/>
                    <entry>
                        <reference value="urn:uuid:46bfb5c0-36de-49ae-a99e-9a73d2c1ac95"/>
                    </entry>
                </section>
            </Composition>
        </resource>
    </entry>
    <entry>
        <fullUrl value="urn:uuid:46bfb5c0-36de-49ae-a99e-9a73d2c1ac95"/>
        <resource>
            <Organization>
                <id value="46bfb5c0-36de-49ae-a99e-9a73d2c1ac95"/>
                <meta>
                    <profile value="http://fhir.abda.de/eRezeptAbgabedaten/StructureDefinition/DAV-PKV-PR-ERP-Apotheke|1.2"/>
                </meta>
                <identifier>
                    <system value="http://fhir.de/sid/arge-ik/iknr"/>
                    <value value="308412345"/>
                </identifier>
                <name value="Adler-Apotheke"/>
                <address>
                    <type value="physical"/>
                    <line value="Taunusstraße 89">
                        <extension url="http://hl7.org/fhir/StructureDefinition/iso21090-ADXP-streetName">
                            <valueString value="Taunusstraße"/>
                        </extension>
                        <extension url="http://hl7.org/fhir/StructureDefinition/iso21090-ADXP-houseNumber">
                            <valueString value="89"/>
                        </extension>
                    </line>
                    <city value="Langen"/>
                    <postalCode value="63225"/>
                    <country value="D"/>
                </address>
            </Organization>
        </resource>
    </entry>
    <entry>
        <fullUrl value="urn:uuid:4ea32dd1-7372-4e51-8902-d7ac980d5d42"/>
        <resource>
            <MedicationDispense>
                <id value="4ea32dd1-7372-4e51-8902-d7ac980d5d42"/>
                <meta>
                    <profile value="http://fhir.abda.de/eRezeptAbgabedaten/StructureDefinition/DAV-PKV-PR-ERP-Abgabeinformationen|1.2"/>
                </meta>
                <extension url="http://fhir.abda.de/eRezeptAbgabedaten/StructureDefinition/DAV-EX-ERP-Abrechnungszeilen">
                    <valueReference>
                        <reference value="urn:uuid:e7589618-0309-4a85-98dc-ee05d69fe940"/>
                    </valueReference>
                </extension>
                <extension url="http://fhir.abda.de/eRezeptAbgabedaten/StructureDefinition/DAV-PKV-EX-ERP-AbrechnungsTyp">
                    <valueCodeableConcept>
                        <coding>
                            <system value="http://fhir.abda.de/eRezeptAbgabedaten/CodeSystem/DAV-PKV-CS-ERP-AbrechnungsTyp"/>
                            <code value="1"/>
                        </coding>
                    </valueCodeableConcept>
                </extension>
                <extension url="http://fhir.abda.de/eRezeptAbgabedaten/StructureDefinition/DAV-EX-ERP-ZusatzdatenHerstellung">
                    <valueReference>
                        <reference value="urn:uuid:9a0d92a0-1492-42f4-82e7-426cd596ef7e"/>
                    </valueReference>
                </extension>
                <extension url="http://fhir.abda.de/eRezeptAbgabedaten/StructureDefinition/DAV-EX-ERP-ZusatzdatenHerstellung">
                    <valueReference>
                        <reference value="urn:uuid:97765ff2-b5cb-4c72-8768-27a610d3d189"/>
                    </valueReference>
                </extension>
                <extension url="http://fhir.abda.de/eRezeptAbgabedaten/StructureDefinition/DAV-EX-ERP-ZusatzdatenHerstellung">
                    <valueReference>
                        <reference value="urn:uuid:85f5e706-b363-4cb5-9de7-a37d074b5757"/>
                    </valueReference>
                </extension>
                <status value="completed"/>
                <medicationCodeableConcept>
                    <coding>
                        <system value="http://terminology.hl7.org/CodeSystem/data-absent-reason"/>
                        <code value="not-applicable"/>
                    </coding>
                </medicationCodeableConcept>
                <performer>
                    <actor>
                        <reference value="urn:uuid:46bfb5c0-36de-49ae-a99e-9a73d2c1ac95"/>
                    </actor>
                </performer>
                <authorizingPrescription>
                    <identifier>
                        <system value="https://gematik.de/fhir/erp/NamingSystem/GEM_ERP_NS_PrescriptionId"/>
                        <value value="209.100.612.180.208.16"/>
                    </identifier>
                </authorizingPrescription>
                <type>
                    <coding>
                        <system value="http://fhir.abda.de/eRezeptAbgabedaten/CodeSystem/DAV-CS-ERP-MedicationDispenseTyp"/>
                        <code value="Abgabeinformationen"/>
                    </coding>
                </type>
                <whenHandedOver value="2023-07-06"/>
            </MedicationDispense>
        </resource>
    </entry>
    <entry>
        <fullUrl value="urn:uuid:e7589618-0309-4a85-98dc-ee05d69fe940"/>
        <resource>
            <Invoice>
                <id value="e7589618-0309-4a85-98dc-ee05d69fe940"/>
                <meta>
                    <profile value="http://fhir.abda.de/eRezeptAbgabedaten/StructureDefinition/DAV-PKV-PR-ERP-Abrechnungszeilen|1.2"/>
                </meta>
                <status value="issued"/>
                <type>
                    <coding>
                        <system value="http://fhir.abda.de/eRezeptAbgabedaten/CodeSystem/DAV-CS-ERP-InvoiceTyp"/>
                        <code value="Abrechnungszeilen"/>
                    </coding>
                </type>
                <lineItem>
                    <sequence value="1"/>
                    <chargeItemCodeableConcept>
                        <coding>
                            <system value="http://TA1.abda.de"/>
                            <code value="09999092"/>
                        </coding>
                        <text value="Parenterale Zubereitung"/>
                    </chargeItemCodeableConcept>
                    <priceComponent>
                        <extension url="http://fhir.abda.de/eRezeptAbgabedaten/StructureDefinition/DAV-EX-ERP-MwStSatz">
                            <valueDecimal value="19.00"/>
                        </extension>
                        <extension url="http://fhir.abda.de/eRezeptAbgabedaten/StructureDefinition/DAV-EX-ERP-KostenVersicherter">
                            <extension url="Kategorie">
                                <valueCodeableConcept>
                                    <coding>
                                        <system value="http://fhir.abda.de/eRezeptAbgabedaten/CodeSystem/DAV-PKV-CS-ERP-KostenVersicherterKategorie"/>
                                        <code value="0"/>
                                    </coding>
                                </valueCodeableConcept>
                            </extension>
                            <extension url="Kostenbetrag">
                                <valueMoney>
                                    <value value="0.00"/>
                                    <currency value="EUR"/>
                                </valueMoney>
                            </extension>
                        </extension>
                        <type value="informational"/>
                        <factor value="1"/>
                        <amount>
                            <value value="389.17"/>
                            <currency value="EUR"/>
                        </amount>
                    </priceComponent>
                </lineItem>
                <totalGross>
                    <extension url="http://fhir.abda.de/eRezeptAbgabedaten/StructureDefinition/DAV-EX-ERP-Gesamtzuzahlung">
                        <valueMoney>
                            <value value="0.00"/>
                            <currency value="EUR"/>
                        </valueMoney>
                    </extension>
                    <value value="389.17"/>
                    <currency value="EUR"/>
                </totalGross>
            </Invoice>
        </resource>
    </entry>
    <entry>
        <fullUrl value="urn:uuid:9a0d92a0-1492-42f4-82e7-426cd596ef7e"/>
        <resource>
            <MedicationDispense>
                <id value="9a0d92a0-1492-42f4-82e7-426cd596ef7e"/>
                <meta>
                    <profile value="http://fhir.abda.de/eRezeptAbgabedaten/StructureDefinition/DAV-PKV-PR-ERP-ZusatzdatenHerstellung|1.2"/>
                </meta>
                <extension url="http://fhir.abda.de/eRezeptAbgabedaten/StructureDefinition/DAV-EX-ERP-Zaehler">
                    <valuePositiveInt value="1"/>
                </extension>
                <extension url="http://fhir.abda.de/eRezeptAbgabedaten/StructureDefinition/DAV-EX-ERP-ZusatzdatenEinheit">
                    <valueReference>
                        <reference value="urn:uuid:658aefef-ed6d-444c-8817-1684866cffc6"/>
                    </valueReference>
                </extension>
                <status value="completed"/>
                <medicationCodeableConcept>
                    <coding>
                        <system value="http://terminology.hl7.org/CodeSystem/data-absent-reason"/>
                        <code value="not-applicable"/>
                    </coding>
                </medicationCodeableConcept>
                <type>
                    <coding>
                        <system value="http://fhir.abda.de/eRezeptAbgabedaten/CodeSystem/DAV-CS-ERP-MedicationDispenseTyp"/>
                        <code value="ZusatzdatenHerstellung"/>
                    </coding>
                </type>
                <whenPrepared value="2023-07-04T12:00:00Z"/>
            </MedicationDispense>
        </resource>
    </entry>
    <entry>
        <fullUrl value="urn:uuid:97765ff2-b5cb-4c72-8768-27a610d3d189"/>
        <resource>
            <MedicationDispense>
                <id value="97765ff2-b5cb-4c72-8768-27a610d3d189"/>
                <meta>
                    <profile value="http://fhir.abda.de/eRezeptAbgabedaten/StructureDefinition/DAV-PKV-PR-ERP-ZusatzdatenHerstellung|1.2"/>
                </meta>
                <extension url="http://fhir.abda.de/eRezeptAbgabedaten/StructureDefinition/DAV-EX-ERP-Zaehler">
                    <valuePositiveInt value="2"/>
                </extension>
                <extension url="http://fhir.abda.de/eRezeptAbgabedaten/StructureDefinition/DAV-EX-ERP-ZusatzdatenEinheit">
                    <valueReference>
                        <reference value="urn:uuid:6c6bd9ae-d35d-449f-b822-788b28ed88c8"/>
                    </valueReference>
                </extension>
                <status value="completed"/>
                <medicationCodeableConcept>
                    <coding>
                        <system value="http://terminology.hl7.org/CodeSystem/data-absent-reason"/>
                        <code value="not-applicable"/>
                    </coding>
                </medicationCodeableConcept>
                <type>
                    <coding>
                        <system value="http://fhir.abda.de/eRezeptAbgabedaten/CodeSystem/DAV-CS-ERP-MedicationDispenseTyp"/>
                        <code value="ZusatzdatenHerstellung"/>
                    </coding>
                </type>
                <whenPrepared value="2023-07-05T09:00:00Z"/>
            </MedicationDispense>
        </resource>
    </entry>
    <entry>
        <fullUrl value="urn:uuid:85f5e706-b363-4cb5-9de7-a37d074b5757"/>
        <resource>
            <MedicationDispense>
                <id value="85f5e706-b363-4cb5-9de7-a37d074b5757"/>
                <meta>
                    <profile value="http://fhir.abda.de/eRezeptAbgabedaten/StructureDefinition/DAV-PKV-PR-ERP-ZusatzdatenHerstellung|1.2"/>
                </meta>
                <extension url="http://fhir.abda.de/eRezeptAbgabedaten/StructureDefinition/DAV-EX-ERP-Zaehler">
                    <valuePositiveInt value="3"/>
                </extension>
                <extension url="http://fhir.abda.de/eRezeptAbgabedaten/StructureDefinition/DAV-EX-ERP-ZusatzdatenEinheit">
                    <valueReference>
                        <reference value="urn:uuid:7d62c70e-c963-4c4d-a420-7df13781c9ad"/>
                    </valueReference>
                </extension>
                <status value="completed"/>
                <medicationCodeableConcept>
                    <coding>
                        <system value="http://terminology.hl7.org/CodeSystem/data-absent-reason"/>
                        <code value="not-applicable"/>
                    </coding>
                </medicationCodeableConcept>
                <type>
                    <coding>
                        <system value="http://fhir.abda.de/eRezeptAbgabedaten/CodeSystem/DAV-CS-ERP-MedicationDispenseTyp"/>
                        <code value="ZusatzdatenHerstellung"/>
                    </coding>
                </type>
                <whenPrepared value="2023-07-06T10:00:00Z"/>
            </MedicationDispense>
        </resource>
    </entry>
    <entry>
        <fullUrl value="urn:uuid:658aefef-ed6d-444c-8817-1684866cffc6"/>
        <resource>
            <Invoice>
                <id value="658aefef-ed6d-444c-8817-1684866cffc6"/>
                <meta>
                    <profile value="http://fhir.abda.de/eRezeptAbgabedaten/StructureDefinition/DAV-PKV-PR-ERP-ZusatzdatenEinheit|1.2"/>
                </meta>
                <extension url="http://fhir.abda.de/eRezeptAbgabedaten/StructureDefinition/DAV-EX-ERP-Zaehler">
                    <valuePositiveInt value="1"/>
                </extension>
                <status value="issued"/>
                <type>
                    <coding>
                        <system value="http://fhir.abda.de/eRezeptAbgabedaten/CodeSystem/DAV-CS-ERP-InvoiceTyp"/>
                        <code value="ZusatzdatenEinheit"/>
                    </coding>
                </type>
                <lineItem>
                    <sequence value="1"/>
                    <chargeItemCodeableConcept>
                        <coding>
                            <system value="http://fhir.de/CodeSystem/ifa/pzn"/>
                            <code value="01131365"/>
                        </coding>
                    </chargeItemCodeableConcept>
                    <priceComponent>
                        <extension url="http://fhir.abda.de/eRezeptAbgabedaten/StructureDefinition/DAV-EX-ERP-ZusatzdatenFaktorkennzeichen">
                            <valueCodeableConcept>
                                <coding>
                                    <system value="http://fhir.abda.de/eRezeptAbgabedaten/CodeSystem/DAV-PKV-CS-ERP-ZusatzdatenEinheitFaktorkennzeichen"/>
                                    <code value="11"/>
                                </coding>
                            </valueCodeableConcept>
                        </extension>
                        <type value="informational"/>
                        <factor value="360"/>
                        <amount>
                            <value value="17.33"/>
                            <currency value="EUR"/>
                        </amount>
                    </priceComponent>
                </lineItem>
                <lineItem>
                    <sequence value="2"/>
                    <chargeItemCodeableConcept>
                        <coding>
                            <system value="http://fhir.de/CodeSystem/ifa/pzn"/>
                            <code value="09477471"/>
                        </coding>
                    </chargeItemCodeableConcept>
                    <priceComponent>
                        <extension url="http://fhir.abda.de/eRezeptAbgabedaten/StructureDefinition/DAV-EX-ERP-ZusatzdatenFaktorkennzeichen">
                            <valueCodeableConcept>
                                <coding>
                                    <system value="http://fhir.abda.de/eRezeptAbgabedaten/CodeSystem/DAV-PKV-CS-ERP-ZusatzdatenEinheitFaktorkennzeichen"/>
                                    <code value="11"/>
                                </coding>
                            </valueCodeableConcept>
                        </extension>
                        <type value="informational"/>
                        <factor value="50"/>
                        <amount>
                            <value value="1.36"/>
                            <currency value="EUR"/>
                        </amount>
                    </priceComponent>
                </lineItem>
                <lineItem>
                    <sequence value="3"/>
                    <chargeItemCodeableConcept>
                        <coding>
                            <system value="http://TA1.abda.de"/>
                            <code value="06460518"/>
                        </coding>
                    </chargeItemCodeableConcept>
                    <priceComponent>
                        <extension url="http://fhir.abda.de/eRezeptAbgabedaten/StructureDefinition/DAV-EX-ERP-ZusatzdatenFaktorkennzeichen">
                            <valueCodeableConcept>
                                <coding>
                                    <system value="http://fhir.abda.de/eRezeptAbgabedaten/CodeSystem/DAV-PKV-CS-ERP-ZusatzdatenEinheitFaktorkennzeichen"/>
                                    <code value="11"/>
                                </coding>
                            </valueCodeableConcept>
                        </extension>
                        <type value="informational"/>
                        <factor value="1000"/>
                        <amount>
                            <value value="90.00"/>
                            <currency value="EUR"/>
                        </amount>
                    </priceComponent>
                </lineItem>
            </Invoice>
        </resource>
    </entry>
    <entry>
        <fullUrl value="urn:uuid:6c6bd9ae-d35d-449f-b822-788b28ed88c8"/>
        <resource>
            <Invoice>
                <id value="6c6bd9ae-d35d-449f-b822-788b28ed88c8"/>
                <meta>
                    <profile value="http://fhir.abda.de/eRezeptAbgabedaten/StructureDefinition/DAV-PKV-PR-ERP-ZusatzdatenEinheit|1.2"/>
                </meta>
                <extension url="http://fhir.abda.de/eRezeptAbgabedaten/StructureDefinition/DAV-EX-ERP-Zaehler">
                    <valuePositiveInt value="1"/>
                </extension>
                <status value="issued"/>
                <type>
                    <coding>
                        <system value="http://fhir.abda.de/eRezeptAbgabedaten/CodeSystem/DAV-CS-ERP-InvoiceTyp"/>
                        <code value="ZusatzdatenEinheit"/>
                    </coding>
                </type>
                <lineItem>
                    <sequence value="1"/>
                    <chargeItemCodeableConcept>
                        <coding>
                            <system value="http://fhir.de/CodeSystem/ifa/pzn"/>
                            <code value="01131365"/>
                        </coding>
                    </chargeItemCodeableConcept>
                    <priceComponent>
                        <extension url="http://fhir.abda.de/eRezeptAbgabedaten/StructureDefinition/DAV-EX-ERP-ZusatzdatenFaktorkennzeichen">
                            <valueCodeableConcept>
                                <coding>
                                    <system value="http://fhir.abda.de/eRezeptAbgabedaten/CodeSystem/DAV-PKV-CS-ERP-ZusatzdatenEinheitFaktorkennzeichen"/>
                                    <code value="11"/>
                                </coding>
                            </valueCodeableConcept>
                        </extension>
                        <type value="informational"/>
                        <factor value="360"/>
                        <amount>
                            <value value="17.33"/>
                            <currency value="EUR"/>
                        </amount>
                    </priceComponent>
                </lineItem>
                <lineItem>
                    <sequence value="2"/>
                    <chargeItemCodeableConcept>
                        <coding>
                            <system value="http://fhir.de/CodeSystem/ifa/pzn"/>
                            <code value="09477471"/>
                        </coding>
                    </chargeItemCodeableConcept>
                    <priceComponent>
                        <extension url="http://fhir.abda.de/eRezeptAbgabedaten/StructureDefinition/DAV-EX-ERP-ZusatzdatenFaktorkennzeichen">
                            <valueCodeableConcept>
                                <coding>
                                    <system value="http://fhir.abda.de/eRezeptAbgabedaten/CodeSystem/DAV-PKV-CS-ERP-ZusatzdatenEinheitFaktorkennzeichen"/>
                                    <code value="11"/>
                                </coding>
                            </valueCodeableConcept>
                        </extension>
                        <type value="informational"/>
                        <factor value="50"/>
                        <amount>
                            <value value="1.36"/>
                            <currency value="EUR"/>
                        </amount>
                    </priceComponent>
                </lineItem>
                <lineItem>
                    <sequence value="3"/>
                    <chargeItemCodeableConcept>
                        <coding>
                            <system value="http://TA1.abda.de"/>
                            <code value="06460518"/>
                        </coding>
                    </chargeItemCodeableConcept>
                    <priceComponent>
                        <extension url="http://fhir.abda.de/eRezeptAbgabedaten/StructureDefinition/DAV-EX-ERP-ZusatzdatenFaktorkennzeichen">
                            <valueCodeableConcept>
                                <coding>
                                    <system value="http://fhir.abda.de/eRezeptAbgabedaten/CodeSystem/DAV-PKV-CS-ERP-ZusatzdatenEinheitFaktorkennzeichen"/>
                                    <code value="11"/>
                                </coding>
                            </valueCodeableConcept>
                        </extension>
                        <type value="informational"/>
                        <factor value="1000"/>
                        <amount>
                            <value value="90.00"/>
                            <currency value="EUR"/>
                        </amount>
                    </priceComponent>
                </lineItem>
            </Invoice>
        </resource>
    </entry>
    <entry>
        <fullUrl value="urn:uuid:7d62c70e-c963-4c4d-a420-7df13781c9ad"/>
        <resource>
            <Invoice>
                <id value="7d62c70e-c963-4c4d-a420-7df13781c9ad"/>
                <meta>
                    <profile value="http://fhir.abda.de/eRezeptAbgabedaten/StructureDefinition/DAV-PKV-PR-ERP-ZusatzdatenEinheit|1.2"/>
                </meta>
                <extension url="http://fhir.abda.de/eRezeptAbgabedaten/StructureDefinition/DAV-EX-ERP-Zaehler">
                    <valuePositiveInt value="1"/>
                </extension>
                <status value="issued"/>
                <type>
                    <coding>
                        <system value="http://fhir.abda.de/eRezeptAbgabedaten/CodeSystem/DAV-CS-ERP-InvoiceTyp"/>
                        <code value="ZusatzdatenEinheit"/>
                    </coding>
                </type>
                <lineItem>
                    <sequence value="1"/>
                    <chargeItemCodeableConcept>
                        <coding>
                            <system value="http://fhir.de/CodeSystem/ifa/pzn"/>
                            <code value="01131365"/>
                        </coding>
                    </chargeItemCodeableConcept>
                    <priceComponent>
                        <extension url="http://fhir.abda.de/eRezeptAbgabedaten/StructureDefinition/DAV-EX-ERP-ZusatzdatenFaktorkennzeichen">
                            <valueCodeableConcept>
                                <coding>
                                    <system value="http://fhir.abda.de/eRezeptAbgabedaten/CodeSystem/DAV-PKV-CS-ERP-ZusatzdatenEinheitFaktorkennzeichen"/>
                                    <code value="11"/>
                                </coding>
                            </valueCodeableConcept>
                        </extension>
                        <type value="informational"/>
                        <factor value="360"/>
                        <amount>
                            <value value="17.33"/>
                            <currency value="EUR"/>
                        </amount>
                    </priceComponent>
                </lineItem>
                <lineItem>
                    <sequence value="2"/>
                    <chargeItemCodeableConcept>
                        <coding>
                            <system value="http://fhir.de/CodeSystem/ifa/pzn"/>
                            <code value="01131365"/>
                        </coding>
                    </chargeItemCodeableConcept>
                    <priceComponent>
                        <extension url="http://fhir.abda.de/eRezeptAbgabedaten/StructureDefinition/DAV-EX-ERP-ZusatzdatenFaktorkennzeichen">
                            <valueCodeableConcept>
                                <coding>
                                    <system value="http://fhir.abda.de/eRezeptAbgabedaten/CodeSystem/DAV-PKV-CS-ERP-ZusatzdatenEinheitFaktorkennzeichen"/>
                                    <code value="99"/>
                                </coding>
                            </valueCodeableConcept>
                        </extension>
                        <type value="informational"/>
                        <factor value="360"/>
                        <amount>
                            <value value="0.96"/>
                            <currency value="EUR"/>
                        </amount>
                    </priceComponent>
                </lineItem>
                <lineItem>
                    <sequence value="3"/>
                    <chargeItemCodeableConcept>
                        <coding>
                            <system value="http://fhir.de/CodeSystem/ifa/pzn"/>
                            <code value="09477471"/>
                        </coding>
                    </chargeItemCodeableConcept>
                    <priceComponent>
                        <extension url="http://fhir.abda.de/eRezeptAbgabedaten/StructureDefinition/DAV-EX-ERP-ZusatzdatenFaktorkennzeichen">
                            <valueCodeableConcept>
                                <coding>
                                    <system value="http://fhir.abda.de/eRezeptAbgabedaten/CodeSystem/DAV-PKV-CS-ERP-ZusatzdatenEinheitFaktorkennzeichen"/>
                                    <code value="11"/>
                                </coding>
                            </valueCodeableConcept>
                        </extension>
                        <type value="informational"/>
                        <factor value="50"/>
                        <amount>
                            <value value="1.36"/>
                            <currency value="EUR"/>
                        </amount>
                    </priceComponent>
                </lineItem>
                <lineItem>
                    <sequence value="4"/>
                    <chargeItemCodeableConcept>
                        <coding>
                            <system value="http://TA1.abda.de"/>
                            <code value="06460518"/>
                        </coding>
                    </chargeItemCodeableConcept>
                    <priceComponent>
                        <extension url="http://fhir.abda.de/eRezeptAbgabedaten/StructureDefinition/DAV-EX-ERP-ZusatzdatenFaktorkennzeichen">
                            <valueCodeableConcept>
                                <coding>
                                    <system value="http://fhir.abda.de/eRezeptAbgabedaten/CodeSystem/DAV-PKV-CS-ERP-ZusatzdatenEinheitFaktorkennzeichen"/>
                                    <code value="11"/>
                                </coding>
                            </valueCodeableConcept>
                        </extension>
                        <type value="informational"/>
                        <factor value="1000"/>
                        <amount>
                            <value value="90.00"/>
                            <currency value="EUR"/>
                        </amount>
                    </priceComponent>
                </lineItem>
            </Invoice>
        </resource>
    </entry>
</Bundle>