<Bundle xmlns="http://hl7.org/fhir">
  <id value="7c3630ea-a642-47b1-96d0-a2fa1d81df26" />
  <meta>
    <profile value="https://fhir.gkvsv.de/StructureDefinition/GKVSV_PR_TA7_Sammelrechnung_Bundle|1.0.6" />
    <tag>
      <display value="Beispiel der TA7/eAbrechnungsdaten." />
    </tag>
    <tag>
      <display value="ACHTUNG! Der fachlich korrekte Inhalt der Beispielinstanz kann nicht gew채hrleistet werden. Wir sind jederzeit dankbar f체r Hinweise auf Fehler oder f체r Verbesserungsvorschl채ge." />
    </tag>
  </meta>
  <identifier>
    <extension url="https://fhir.gkvsv.de/StructureDefinition/GKVSV_EX_ERP_TA7_Dateinummer">
      <valueString value="00002" />
    </extension>
    <system value="https://fhir.gkvsv.de/NamingSystem/GKVSV_NS_Dateiname" />
    <value value="ARZFHR21002" />
  </identifier>
  <type value="document" />
  <timestamp value="2021-08-02T10:00:00Z" />
  <entry>
    <fullUrl value="urn:uuid:b67c14ee-758f-43b4-88a0-142a0e439681" />
    <resource>
      <Composition>
        <id value="b67c14ee-758f-43b4-88a0-142a0e439681" />
        <meta>
          <profile value="https://fhir.gkvsv.de/StructureDefinition/GKVSV_PR_TA7_Sammelrechnung_Composition|1.0.6" />
        </meta>
        <extension url="https://fhir.gkvsv.de/StructureDefinition/GKVSV_EX_TA7_IK_Empfaenger">
          <valueIdentifier>
            <system value="http://fhir.de/NamingSystem/arge-ik/iknr" />
            <value value="101575519" />
          </valueIdentifier>
        </extension>
        <extension url="https://fhir.gkvsv.de/StructureDefinition/GKVSV_EX_TA7_IK_Kostentraeger">
          <valueIdentifier>
            <system value="http://fhir.de/NamingSystem/arge-ik/iknr" />
            <value value="101575519" />
          </valueIdentifier>
        </extension>
        <status value="final" />
        <type>
          <coding>
            <system value="https://fhir.gkvsv.de/CodeSystem/GKVSV_CS_ERP_TA7" />
            <code value="SR" />
            <display value="Sammelrechnung" />
          </coding>
        </type>
        <date value="2021-07-31" />
        <author>
          <identifier>
            <system value="http://fhir.de/NamingSystem/arge-ik/iknr" />
            <value value="987654321" />
          </identifier>
        </author>
        <title value="elektronische Sammelrechnung" />
        <section>
          <code>
            <coding>
              <system value="https://fhir.gkvsv.de/CodeSystem/GKVSV_CS_ERP_TA7" />
              <code value="LSR" />
              <display value="Liste der Sammelrechnungen" />
            </coding>
          </code>
          <entry>
            <reference value="urn:uuid:185639a4-a106-4d60-ba4b-09091873d34e" />
          </entry>
        </section>
        <section>
          <code>
            <coding>
              <system value="https://fhir.gkvsv.de/CodeSystem/GKVSV_CS_ERP_TA7" />
              <code value="R" />
              <display value="Rechnungen" />
            </coding>
          </code>
          <entry>
            <reference value="urn:uuid:18584890-484c-421d-9363-7b857a66285c" />
          </entry>
        </section>
      </Composition>
    </resource>
  </entry>
  <entry>
    <fullUrl value="urn:uuid:185639a4-a106-4d60-ba4b-09091873d34e" />
    <resource>
      <List>
        <id value="185639a4-a106-4d60-ba4b-09091873d34e" />
        <meta>
          <profile value="https://fhir.gkvsv.de/StructureDefinition/GKVSV_PR_TA7_Sammelrechnung_List|1.0.6" />
        </meta>
        <status value="current" />
        <mode value="working" />
        <entry>
          <item>
            <reference value="Bundle/7c3630ea-a642-47b1-96d0-a2fa1d81df26" />
          </item>
        </entry>
      </List>
    </resource>
  </entry>
  <entry>
    <fullUrl value="urn:uuid:18584890-484c-421d-9363-7b857a66285c" />
    <resource>
      <Invoice>
        <id value="18584890-484c-421d-9363-7b857a66285c" />
        <meta>
          <profile value="https://fhir.gkvsv.de/StructureDefinition/GKVSV_PR_TA7_Rechnung|1.0.6" />
        </meta>
        <extension url="https://fhir.gkvsv.de/StructureDefinition/GKVSV_EX_ERP_TA7_Abrechnungszeitraum">
          <valueDateTime value="2021-07-31" />
        </extension>
        <extension url="https://fhir.gkvsv.de/StructureDefinition/GKVSV_EX_ERP_RezeptBundleReferenz">
          <extension url="lineItem">
            <valueReference>
              <reference value="urn:uuid:ebf62e86-8a28-4d90-8eeb-abf2e00b8998" />
            </valueReference>
          </extension>
        </extension>
        <identifier>
          <system value="https://fhir.gkvsv.de/NamingSystem/GKVSV_NS_Sammelrechnungsnummer" />
          <value value="21050022" />
        </identifier>
        <status value="issued" />
        <type>
          <coding>
            <system value="https://fhir.gkvsv.de/CodeSystem/GKVSV_CS_ERP_Rechnungsart" />
            <code value="6" />
          </coding>
        </type>
        <recipient>
          <identifier>
            <system value="http://fhir.de/NamingSystem/arge-ik/iknr" />
            <value value="101575519" />
          </identifier>
        </recipient>
        <date value="2021-08-02" />
      </Invoice>
    </resource>
  </entry>
  <entry>
    <fullUrl value="urn:uuid:ebf62e86-8a28-4d90-8eeb-abf2e00b8998" />
    <resource>
      <Bundle>
        <id value="ebf62e86-8a28-4d90-8eeb-abf2e00b8998" />
        <meta>
          <profile value="https://fhir.gkvsv.de/StructureDefinition/GKVSV_PR_TA7_RezeptBundle|1.0.6" />
        </meta>
        <type value="collection" />
        <entry>
          <link>
            <relation value="item" />
            <url value="https://fhir.kbv.de/StructureDefinition/KBV_PR_ERP_Bundle" />
          </link>
          <fullUrl value="urn:uuid:0fc8d849-7b0d-4685-ad23-094a68706231" />
          <resource>
            <Binary>
              <id value="0fc8d849-7b0d-4685-ad23-094a68706231" />
              <meta>
                <profile value="https://gematik.de/fhir/StructureDefinition/ErxBinary" />
              </meta>
              <contentType value="application/pkcs7-mime" />
              <data value="VmVyb3JkbnVuZ3NkYXRlbiBCZWlzcGllbCBFcnN0ZWxsdW5nIEJlaXNwaWVsIGVBYnJlY2hudW5nc2RhdGVu" />
            </Binary>
          </resource>
        </entry>
        <entry>
          <link>
            <relation value="item" />
            <url value="https://gematik.de/fhir/StructureDefinition/ErxReceipt" />
          </link>
          <fullUrl value="urn:uuid:21b669d4-d835-4d1c-a667-9aa0b1cbe893" />
          <resource>
            <Bundle>
              <id value="21b669d4-d835-4d1c-a667-9aa0b1cbe893" />
              <meta>
                <profile value="https://gematik.de/fhir/StructureDefinition/ErxReceipt" />
              </meta>
              <identifier>
                <system value="https://gematik.de/fhir/NamingSystem/PrescriptionID" />
                <value value="160.100.000.000.011.09" />
              </identifier>
              <type value="document" />
              <timestamp value="2021-07-27T09:30:00Z" />
              <link>
                <relation value="self" />
                <url value="https://gematik.erppre.de:443/Task/160.100.000.000.011.09/$close" />
              </link>
              <entry>
                <fullUrl value="urn:uuid:0b973a9d-fe80-4cf7-8580-2dc56f5a56d4" />
                <resource>
                  <Composition>
                    <id value="0b973a9d-fe80-4cf7-8580-2dc56f5a56d4" />
                    <meta>
                      <profile value="https://gematik.de/fhir/StructureDefinition/ErxComposition" />
                    </meta>
                    <extension url="https://gematik.de/fhir/StructureDefinition/BeneficiaryExtension">
                      <valueIdentifier>
                        <system value="https://gematik.de/fhir/NamingSystem/TelematikID" />
                        <value value="606358757" />
                      </valueIdentifier>
                    </extension>
                    <status value="final" />
                    <type>
                      <coding>
                        <system value="https://gematik.de/fhir/CodeSystem/Documenttype" />
                        <code value="3" />
                        <display value="Receipt" />
                      </coding>
                    </type>
                    <date value="2021-07-27T09:30:00Z" />
                    <author>
                      <reference value="https://gematik.erppre.de:443/Device" />
                    </author>
                    <title value="Quittung" />
                    <event>
                      <period>
                        <start value="2021-07-27T08:45:00Z" />
                        <end value="2021-07-27T09:30:00Z" />
                      </period>
                    </event>
                  </Composition>
                </resource>
              </entry>
              <entry>
                <fullUrl value="https://gematik.erppre.de:443/Device" />
                <resource>
                  <Device>
                    <id value="1" />
                    <meta>
                      <profile value="https://gematik.de/fhir/StructureDefinition/ErxDevice" />
                    </meta>
                    <status value="active" />
                    <serialNumber value="0.3.1" />
                    <deviceName>
                      <name value="E-Rezept Fachdienst" />
                      <type value="user-friendly-name" />
                    </deviceName>
                    <version>
                      <value value="0.3.1" />
                    </version>
                    <contact>
                      <system value="email" />
                      <value value="betrieb@gematik.de" />
                    </contact>
                  </Device>
                </resource>
              </entry>
              <signature>
                <type>
                  <system value="urn:iso-astm:E1762-95:2013" />
                  <code value="1.2.840.10065.1.12.1.1" />
                </type>
                <when value="2021-07-27T09:30:00Z" />
                <who>
                  <reference value="https://gematik.erppre.de:443/Device" />
                </who>
                <sigFormat value="application/pkcs7-mime" />
                <data value="" />
              </signature>
            </Bundle>
          </resource>
        </entry>
        <entry>
          <link>
            <relation value="item" />
            <url value="http://fhir.abda.de/eRezeptAbgabedaten/StructureDefinition/DAV-PR-ERP-AbgabedatenBundle" />
          </link>
          <fullUrl value="urn:uuid:bdb3052a-3e8a-4952-b9be-7c12219c2b81" />
          <resource>
            <Binary>
              <id value="bdb3052a-3e8a-4952-b9be-7c12219c2b81" />
              <meta>
                <profile value="https://gematik.de/fhir/StructureDefinition/ErxBinary" />
              </meta>
              <contentType value="application/pkcs7-mime" />
              <data value="ZUFiZ2FiZWRhdGVuIEJlaXNwaWVsIEVyc3RlbGx1bmcgQmVpc3BpZWwgZUFicmVjaG51bmdzZGF0ZW4=" />
            </Binary>
          </resource>
        </entry>
        <entry>
          <link>
            <relation value="item" />
            <url value="https://fhir.gkvsv.de/StructureDefinition/GKVSV_PR_ERP_eAbrechnungsdaten" />
          </link>
          <fullUrl value="urn:uuid:24563ccd-6723-437d-aa59-6b3325066781" />
          <resource>
            <Invoice>
              <id value="24563ccd-6723-437d-aa59-6b3325066781" />
              <meta>
                <profile value="https://fhir.gkvsv.de/StructureDefinition/GKVSV_PR_ERP_eAbrechnungsdaten|1.0.6" />
              </meta>
              <extension url="https://fhir.gkvsv.de/StructureDefinition/GKVSV_EX_ERP_Irrlaeufer">
                <valueBoolean value="false" />
              </extension>
              <identifier>
                <system value="https://gematik.de/fhir/NamingSystem/PrescriptionID" />
                <value value="160.100.000.000.011.09" />
              </identifier>
              <identifier>
                <system value="https://fhir.gkvsv.de/NamingSystem/GKVSV_NS_Belegnummer" />
                <value value="2103000000010000001" />
              </identifier>
              <status value="issued" />
              <issuer>
                <extension url="https://fhir.gkvsv.de/StructureDefinition/GKVSV_EX_ERP_LE_Sitz">
                  <valueCoding>
                    <system value="https://fhir.gkvsv.de/CodeSystem/GKVSV_CS_ERP_Leistungserbringer_Sitz" />
                    <code value="1" />
                  </valueCoding>
                </extension>
                <identifier>
                  <type>
                    <coding>
                      <system value="https://fhir.gkvsv.de/CodeSystem/GKVSV_CS_ERP_Leistungserbringertyp" />
                      <code value="A" />
                    </coding>
                  </type>
                  <system value="http://fhir.de/NamingSystem/arge-ik/iknr" />
                  <value value="308412345" />
                </identifier>
              </issuer>
              <lineItem>
                <extension url="https://fhir.gkvsv.de/StructureDefinition/GKVSV_EX_ERP_Positionstyp">
                  <valueCodeableConcept>
                    <coding>
                      <system value="https://fhir.gkvsv.de/CodeSystem/GKVSV_CS_ERP_Positionstyp" />
                      <code value="1" />
                      <display value="체brige Position" />
                    </coding>
                  </valueCodeableConcept>
                </extension>
                <extension url="https://fhir.gkvsv.de/StructureDefinition/GKVSV_EX_ERP_VAT_VALUE">
                  <valueMoney>
                    <value value="1.62" />
                    <currency value="EUR" />
                  </valueMoney>
                </extension>
                <extension url="https://fhir.gkvsv.de/StructureDefinition/GKVSV_EX_ERP_Import">
                  <valueCodeableConcept>
                    <coding>
                      <system value="https://fhir.gkvsv.de/CodeSystem/GKVSV_CS_ERP_Import" />
                      <code value="0" />
                    </coding>
                  </valueCodeableConcept>
                </extension>
                <sequence value="1" />
                <chargeItemCodeableConcept>
                  <coding>
                    <system value="http://terminology.hl7.org/CodeSystem/v3-NullFlavor" />
                    <code value="UNC" />
                  </coding>
                </chargeItemCodeableConcept>
                <priceComponent>
                  <type value="deduction" />
                  <code>
                    <coding>
                      <system value="https://fhir.gkvsv.de/CodeSystem/GKVSV_CS_ERP_ZuAbschlagKey" />
                      <code value="R001" />
                    </coding>
                  </code>
                  <amount>
                    <value value="-1.77" />
                    <currency value="EUR" />
                  </amount>
                </priceComponent>
              </lineItem>
            </Invoice>
          </resource>
        </entry>
      </Bundle>
    </resource>
  </entry>
</Bundle>