<?xml version="1.0" encoding="UTF-8"?>
<Bundle xmlns="http://hl7.org/fhir">
	<id value="791846f0-dcb9-4d21-b04d-3da0d2d7cf06"/>
	<meta>
		<profile value="https://fhir.kbv.de/StructureDefinition/KBV_PR_ERP_Bundle|1.3"/>
	</meta>
	<identifier>
		<system value="https://gematik.de/fhir/erp/NamingSystem/GEM_ERP_NS_PrescriptionId"/>
		<value value="160.037.424.539.578.62"/>
	</identifier>
	<type value="document"/>
	<timestamp value="2025-10-19T08:30:00Z"/>
	<entry>
		<fullUrl value="http://pvs.praxis.local/fhir/Composition/39ca8513-fdbc-41ad-9bd3-b760018da1da"/>
		<resource>
			<Composition>
				<id value="39ca8513-fdbc-41ad-9bd3-b760018da1da"/>
				<meta>
					<profile value="https://fhir.kbv.de/StructureDefinition/KBV_PR_ERP_Composition|1.3"/>
				</meta>
				<extension url="https://fhir.kbv.de/StructureDefinition/KBV_EX_FOR_Legal_basis">
					<valueCoding>
						<system value="https://fhir.kbv.de/CodeSystem/KBV_CS_SFHIR_KBV_STATUSKENNZEICHEN"/>
						<code value="00"/>
					</valueCoding>
				</extension>
				<status value="final"/>
				<type>
					<coding>
						<system value="https://fhir.kbv.de/CodeSystem/KBV_CS_SFHIR_KBV_FORMULAR_ART"/>
						<code value="e16A"/>
					</coding>
				</type>
				<subject>
					<reference value="Patient/14c0f53a-ef8e-47dd-917d-01ba03acd925"/>
				</subject>
				<date value="2025-10-19T08:00:00Z"/>
				<author>
					<reference value="Practitioner/b87245ef-b70b-4e9b-ad96-9d38efe8f468"/>
					<type value="Practitioner"/>
				</author>
				<author>
					<type value="Device"/>
					<identifier>
						<system value="https://fhir.kbv.de/NamingSystem/KBV_NS_FOR_Pruefnummer"/>
						<value value="Y/400/2107/36/999"/>
					</identifier>
				</author>
				<title value="elektronische Arzneimittelverordnung"/>
				<custodian>
					<reference value="Organization/969fa866-a492-4470-9218-bfdf6ef80ecb"/>
				</custodian>
				<section>
					<code>
						<coding>
							<system value="https://fhir.kbv.de/CodeSystem/KBV_CS_ERP_Section_Type"/>
							<code value="Prescription"/>
						</coding>
					</code>
					<entry>
						<reference value="MedicationRequest/b21e1764-943e-439c-b9c7-fab341b11633"/>
					</entry>
				</section>
				<section>
					<code>
						<coding>
							<system value="https://fhir.kbv.de/CodeSystem/KBV_CS_ERP_Section_Type"/>
							<code value="Coverage"/>
						</coding>
					</code>
					<entry>
						<reference value="Coverage/e8fadb96-24cf-4d73-b88e-4c7c74473200"/>
					</entry>
				</section>
			</Composition>
		</resource>
	</entry>
	<entry>
		<fullUrl value="http://pvs.praxis.local/fhir/MedicationRequest/b21e1764-943e-439c-b9c7-fab341b11633"/>
		<resource>
			<MedicationRequest>
				<id value="b21e1764-943e-439c-b9c7-fab341b11633"/>
				<meta>
					<profile value="https://fhir.kbv.de/StructureDefinition/KBV_PR_ERP_Prescription|1.3"/>
				</meta>
				<extension url="https://fhir.kbv.de/StructureDefinition/KBV_EX_ERP_EmergencyServicesFee">
					<valueBoolean value="false"/>
				</extension>
				<extension url="https://fhir.kbv.de/StructureDefinition/KBV_EX_FOR_SER">
					<valueBoolean value="false"/>
				</extension>
				<extension url="https://fhir.kbv.de/StructureDefinition/KBV_EX_ERP_Multiple_Prescription">
					<extension url="Kennzeichen">
						<valueBoolean value="false"/>
					</extension>
				</extension>
				<extension url="https://fhir.kbv.de/StructureDefinition/KBV_EX_FOR_StatusCoPayment">
					<valueCoding>
						<system value="https://fhir.kbv.de/CodeSystem/KBV_CS_FOR_StatusCoPayment"/>
						<code value="0"/>
					</valueCoding>
				</extension>
				<status value="active"/>
				<intent value="order"/>
				<medicationReference>
					<reference value="Medication/47e54ada-0402-45e6-8652-fcda3fb09449"/>
				</medicationReference>
				<subject>
					<reference value="Patient/14c0f53a-ef8e-47dd-917d-01ba03acd925"/>
				</subject>
				<authoredOn value="2025-10-19"/>
				<requester>
					<reference value="Practitioner/b87245ef-b70b-4e9b-ad96-9d38efe8f468"/>
				</requester>
				<insurance>
					<reference value="Coverage/e8fadb96-24cf-4d73-b88e-4c7c74473200"/>
				</insurance>
				<dosageInstruction>
					<extension url="https://fhir.kbv.de/StructureDefinition/KBV_EX_ERP_DosageFlag">
						<valueBoolean value="false"/>
					</extension>
				</dosageInstruction>
				<dispenseRequest>
					<quantity>
						<value value="1"/>
						<unit value="Packung"/>
					</quantity>
				</dispenseRequest>
				<substitution>
					<allowedBoolean value="true"/>
				</substitution>
			</MedicationRequest>
		</resource>
	</entry>
	<entry>
		<fullUrl value="http://pvs.praxis.local/fhir/Medication/47e54ada-0402-45e6-8652-fcda3fb09449"/>
		<resource>
			<Medication>
				<id value="47e54ada-0402-45e6-8652-fcda3fb09449"/>
				<meta>
					<profile value="https://fhir.kbv.de/StructureDefinition/KBV_PR_ERP_Medication_PZN|1.3"/>
				</meta>
				<extension url="https://fhir.kbv.de/StructureDefinition/KBV_EX_Base_Medication_Type">
					<valueCodeableConcept>
						<coding>
							<system value="http://snomed.info/sct"/>
							<version value="http://snomed.info/sct/11000274103/version/20240515"/>
							<code value="763158003"/>
							<display value="Medicinal product (product)"/>
						</coding>
					</valueCodeableConcept>
				</extension>
				<extension url="https://fhir.kbv.de/StructureDefinition/KBV_EX_ERP_Medication_Category">
					<valueCoding>
						<system value="https://fhir.kbv.de/CodeSystem/KBV_CS_ERP_Medication_Category"/>
						<code value="00"/>
					</valueCoding>
				</extension>
				<extension url="https://fhir.kbv.de/StructureDefinition/KBV_EX_ERP_Medication_Vaccine">
					<valueBoolean value="false"/>
				</extension>
				<extension url="http://fhir.de/StructureDefinition/normgroesse">
					<valueCode value="N1"/>
				</extension>
				<code>
					<coding>
						<system value="http://fhir.de/CodeSystem/ifa/pzn"/>
						<code value="10410472"/>
					</coding>
					<text value="Tamoxifen Aristo 20 mg 30 Tabletten N1"/>
				</code>
				<form>
					<coding>
						<system value="https://fhir.kbv.de/CodeSystem/KBV_CS_SFHIR_KBV_DARREICHUNGSFORM"/>
						<code value="TAB"/>
					</coding>
				</form>
				<amount>
					<numerator>
						<extension url="https://fhir.kbv.de/StructureDefinition/KBV_EX_ERP_Medication_PackagingSize">
							<valueString value="30"/>
						</extension>
						<unit value="Stück"/>
					</numerator>
					<denominator>
						<value value="1"/>
					</denominator>
				</amount>
				<ingredient>
					<itemCodeableConcept>
						<coding>
							<system value="http://fhir.de/CodeSystem/ask"/>
							<code value="11628"/>
						</coding>
						<text value="Tamoxifen"/>
					</itemCodeableConcept>
					<strength>
						<numerator>
							<value value="20"/>
							<unit value="mg"/>
						</numerator>
						<denominator>
							<value value="1"/>
							<unit value="Tbl."/>
						</denominator>
					</strength>
				</ingredient>
			</Medication>
		</resource>
	</entry>
	<entry>
		<fullUrl value="http://pvs.praxis.local/fhir/Patient/14c0f53a-ef8e-47dd-917d-01ba03acd925"/>
		<resource>
			<Patient>
				<id value="14c0f53a-ef8e-47dd-917d-01ba03acd925"/>
				<meta>
					<profile value="https://fhir.kbv.de/StructureDefinition/KBV_PR_FOR_Patient|1.2"/>
				</meta>
				<identifier>
					<type>
						<coding>
							<system value="http://fhir.de/CodeSystem/identifier-type-de-basis"/>
							<code value="KVZ10"/>
						</coding>
					</type>
					<system value="http://fhir.de/sid/gkv/kvid-10"/>
					<value value="K220645120"/>
				</identifier>
				<name>
					<use value="official"/>
					<family value="Schuhmann">
						<extension url="http://hl7.org/fhir/StructureDefinition/humanname-own-name">
							<valueString value="Schuhmann"/>
						</extension>
					</family>
					<given value="Sarah"/>
				</name>
				<birthDate value="1970-12-24"/>
				<address>
					<type value="both"/>
					<line value="Berliner Straße 1">
						<extension url="http://hl7.org/fhir/StructureDefinition/iso21090-ADXP-streetName">
							<valueString value="Berliner Straße"/>
						</extension>
						<extension url="http://hl7.org/fhir/StructureDefinition/iso21090-ADXP-houseNumber">
							<valueString value="1"/>
						</extension>
					</line>
					<city value="Husum"/>
					<postalCode value="25813"/>
					<country value="D"/>
				</address>
			</Patient>
		</resource>
	</entry>
	<entry>
		<fullUrl value="http://pvs.praxis.local/fhir/Practitioner/b87245ef-b70b-4e9b-ad96-9d38efe8f468"/>
		<resource>
			<Practitioner>
				<id value="b87245ef-b70b-4e9b-ad96-9d38efe8f468"/>
				<meta>
					<profile value="https://fhir.kbv.de/StructureDefinition/KBV_PR_FOR_Practitioner|1.2"/>
				</meta>
				<identifier>
					<type>
						<coding>
							<system value="http://terminology.hl7.org/CodeSystem/v2-0203"/>
							<code value="LANR"/>
						</coding>
					</type>
					<system value="https://fhir.kbv.de/NamingSystem/KBV_NS_Base_ANR"/>
					<value value="987654423"/>
				</identifier>
				<identifier>
					<type>
						<coding>
							<system value="http://terminology.hl7.org/CodeSystem/v2-0203"/>
							<code value="PRN"/>
						</coding>
					</type>
					<system value="https://gematik.de/fhir/sid/telematik-id"/>
					<value value="1-748382202"/>
				</identifier>
				<name>
					<use value="official"/>
					<family value="Schneider">
						<extension url="http://hl7.org/fhir/StructureDefinition/humanname-own-name">
							<valueString value="Schneider"/>
						</extension>
					</family>
					<given value="Emma"/>
					<prefix value="Dr. med.">
						<extension url="http://hl7.org/fhir/StructureDefinition/iso21090-EN-qualifier">
							<valueCode value="AC"/>
						</extension>
					</prefix>
				</name>
				<qualification>
					<code>
						<coding>
							<system value="https://fhir.kbv.de/CodeSystem/KBV_CS_FOR_Qualification_Type"/>
							<code value="00"/>
						</coding>
					</code>
				</qualification>
				<qualification>
					<code>
						<coding>
							<system value="https://fhir.kbv.de/CodeSystem/KBV_CS_FOR_Berufsbezeichnung"/>
							<code value="Berufsbezeichnung"/>
						</coding>
						<text value="Fachärztin für Innere Medizin"/>
					</code>
				</qualification>
			</Practitioner>
		</resource>
	</entry>
	<entry>
		<fullUrl value="http://pvs.praxis.local/fhir/Organization/969fa866-a492-4470-9218-bfdf6ef80ecb"/>
		<resource>
			<Organization>
				<id value="969fa866-a492-4470-9218-bfdf6ef80ecb"/>
				<meta>
					<profile value="https://fhir.kbv.de/StructureDefinition/KBV_PR_FOR_Organization|1.2"/>
				</meta>
				<identifier>
					<type>
						<coding>
							<system value="http://terminology.hl7.org/CodeSystem/v2-0203"/>
							<code value="BSNR"/>
						</coding>
					</type>
					<system value="https://fhir.kbv.de/NamingSystem/KBV_NS_Base_BSNR"/>
					<value value="721111100"/>
				</identifier>
				<name value="MVZ"/>
				<telecom>
					<system value="phone"/>
					<value value="0301234567"/>
				</telecom>
				<telecom>
					<system value="fax"/>
					<value value="030123456789"/>
				</telecom>
				<telecom>
					<system value="email"/>
					<value value="mvz@e-mail.de"/>
				</telecom>
				<address>
					<type value="both"/>
					<line value="Herbert-Lewin-Platz 2">
						<extension url="http://hl7.org/fhir/StructureDefinition/iso21090-ADXP-streetName">
							<valueString value="Herbert-Lewin-Platz"/>
						</extension>
						<extension url="http://hl7.org/fhir/StructureDefinition/iso21090-ADXP-houseNumber">
							<valueString value="2"/>
						</extension>
					</line>
					<city value="Berlin"/>
					<postalCode value="10623"/>
					<country value="D"/>
				</address>
			</Organization>
		</resource>
	</entry>
	<entry>
		<fullUrl value="http://pvs.praxis.local/fhir/Coverage/e8fadb96-24cf-4d73-b88e-4c7c74473200"/>
		<resource>
			<Coverage>
				<id value="e8fadb96-24cf-4d73-b88e-4c7c74473200"/>
				<meta>
					<profile value="https://fhir.kbv.de/StructureDefinition/KBV_PR_FOR_Coverage|1.2"/>
				</meta>
				<extension url="http://fhir.de/StructureDefinition/gkv/besondere-personengruppe">
					<valueCoding>
						<system value="https://fhir.kbv.de/CodeSystem/KBV_CS_SFHIR_KBV_PERSONENGRUPPE"/>
						<code value="00"/>
					</valueCoding>
				</extension>
				<extension url="http://fhir.de/StructureDefinition/gkv/dmp-kennzeichen">
					<valueCoding>
						<system value="https://fhir.kbv.de/CodeSystem/KBV_CS_SFHIR_KBV_DMP"/>
						<code value="00"/>
					</valueCoding>
				</extension>
				<extension url="http://fhir.de/StructureDefinition/gkv/wop">
					<valueCoding>
						<system value="https://fhir.kbv.de/CodeSystem/KBV_CS_SFHIR_ITA_WOP"/>
						<code value="01"/>
					</valueCoding>
				</extension>
				<extension url="http://fhir.de/StructureDefinition/gkv/versichertenart">
					<valueCoding>
						<system value="https://fhir.kbv.de/CodeSystem/KBV_CS_SFHIR_KBV_VERSICHERTENSTATUS"/>
						<code value="1"/>
					</valueCoding>
				</extension>
				<status value="active"/>
				<type>
					<coding>
						<system value="http://fhir.de/CodeSystem/versicherungsart-de-basis"/>
						<code value="GKV"/>
					</coding>
				</type>
				<beneficiary>
					<reference value="Patient/14c0f53a-ef8e-47dd-917d-01ba03acd925"/>
				</beneficiary>
				<payor>
					<identifier>
						<system value="http://fhir.de/sid/arge-ik/iknr"/>
						<value value="108018347"/>
					</identifier>
					<display value="AOK Baden-Württemberg"/>
				</payor>
			</Coverage>
		</resource>
	</entry>
</Bundle>