<?xml version="1.0" encoding="UTF-8"?>
<Bundle xmlns="http://hl7.org/fhir">
    <id value="80785418-076e-4318-9c29-addb6180a1f5"/>
    <meta>
        <profile value="https://gematik.de/fhir/erp/StructureDefinition/GEM_ERP_PR_CloseOperationInputBundle|1.3"/>
        <tag>
            <display value="Beispiel MedicationDispense PKV PZN Bsp 31 (multiple medications)"/>
        </tag>
    </meta>
    <type value="collection"/>
    <entry>
        <fullUrl value="urn:uuid:8fdf05c2-0150-4c5e-a45c-3c300ca8d455"/>
        <resource>
            <MedicationDispense>
                <id value="8fdf05c2-0150-4c5e-a45c-3c300ca8d455"/>
                <meta>
                    <profile value="https://gematik.de/fhir/erp/StructureDefinition/GEM_ERP_PR_MedicationDispense|1.3"/>
                    <tag>
                        <display value="Beispiel MedicationDispense PZN Bsp 31"/>
                    </tag>
                    <tag>
                        <display value="ACHTUNG! Der fachlich korrekte Inhalt der Beispielinstanz kann nicht gewährleistet werden. Wir sind jederzeit dankbar für Hinweise auf Fehler oder für Verbesserungsvorschläge."/>
                    </tag>
                </meta>
                <contained>
                    <Medication>
                        <id value="f18cf2b8-9618-4445-a914-d79083e63be9"/>
                        <meta>
                            <profile value="https://fhir.kbv.de/StructureDefinition/KBV_PR_ERP_Medication_PZN|1.1.0"/>
                        </meta>
                        <extension url="https://fhir.kbv.de/StructureDefinition/KBV_EX_Base_Medication_Type">
                            <valueCodeableConcept>
                                <coding>
                                    <system value="http://snomed.info/sct"/>
                                    <version value="http://snomed.info/sct/900000000000207008/version/20220331"/>
                                    <code value="763158003"/>
                                    <display value="Medicinal product (product)"/>
                                </coding>
                            </valueCodeableConcept>
                        </extension>
                        <extension url="https://fhir.kbv.de/StructureDefinition/KBV_EX_ERP_Medication_Category">
                            <valueCoding>
                                <system value="https://fhir.kbv.de/CodeSystem/KBV_CS_ERP_Medication_Category"/>
                                <code value="00"/>
                            </valueCoding>
                        </extension>
                        <extension url="https://fhir.kbv.de/StructureDefinition/KBV_EX_ERP_Medication_Vaccine">
                            <valueBoolean value="false"/>
                        </extension>
                        <extension url="http://fhir.de/StructureDefinition/normgroesse">
                            <valueCode value="N2"/>
                        </extension>
                        <code>
                            <coding>
                                <system value="http://fhir.de/CodeSystem/ifa/pzn"/>
                                <code value="06437028"/>
                            </coding>
                            <text value="Doxycyclin 100-1A Pharma Tabletten N2"/>
                        </code>
                        <form>
                            <coding>
                                <system value="https://fhir.kbv.de/CodeSystem/KBV_CS_SFHIR_KBV_DARREICHUNGSFORM"/>
                                <code value="TAB"/>
                            </coding>
                        </form>
                        <amount>
                            <numerator>
                                <extension url="https://fhir.kbv.de/StructureDefinition/KBV_EX_ERP_Medication_PackagingSize">
                                    <valueString value="20"/>
                                </extension>
                                <unit value="Stück"/>
                            </numerator>
                            <denominator>
                                <value value="1"/>
                            </denominator>
                        </amount>
                        <batch>
                            <lotNumber value="A9876543210123-45678"/>
                        </batch>
                    </Medication>
                </contained>
                <identifier>
                    <system value="https://gematik.de/fhir/erp/NamingSystem/GEM_ERP_NS_PrescriptionId"/>
                    <value value="160.115.468.135.035.50"/>
                </identifier>
                <status value="completed"/>
                <medicationReference>
                    <reference value="#f18cf2b8-9618-4445-a914-d79083e63be9"/>
                </medicationReference>
                <subject>
                    <identifier>
                        <system value="http://fhir.de/sid/gkv/kvid-10"/>
                        <value value="K220635158"/>
                    </identifier>
                </subject>
                <performer>
                    <actor>
                        <identifier>
                            <system value="https://gematik.de/fhir/sid/telematik-id"/>
                            <value value="3-07.2.1234560000.10.789"/>
                        </identifier>
                    </actor>
                </performer>
                <quantity>
                    <value value="2"/>
                    <system value="http://unitsofmeasure.org"/>
                    <code value="{Package}"/>
                </quantity>
                <whenHandedOver value="2024-11-19"/>
            </MedicationDispense>
        </resource>
    </entry>
    <entry>
        <fullUrl value="urn:uuid:0455a017-acd8-47cf-9036-e9d9920ecf55"/>
        <resource>
            <MedicationDispense>
                <id value="0455a017-acd8-47cf-9036-e9d9920ecf55"/>
                <meta>
                    <profile value="https://gematik.de/fhir/erp/StructureDefinition/GEM_ERP_PR_MedicationDispense|1.3"/>
                    <tag>
                        <display value="Beispiel MedicationDispense PZN Bsp 31"/>
                    </tag>
                    <tag>
                        <display value="ACHTUNG! Der fachlich korrekte Inhalt der Beispielinstanz kann nicht gewährleistet werden. Wir sind jederzeit dankbar für Hinweise auf Fehler oder für Verbesserungsvorschläge."/>
                    </tag>
                </meta>
                <contained>
                    <Medication>
                        <id value="43a4b03c-de10-40b9-a592-26cd42fd9bf9"/>
                        <meta>
                            <profile value="https://fhir.kbv.de/StructureDefinition/KBV_PR_ERP_Medication_PZN|1.1.0"/>
                        </meta>
                        <extension url="https://fhir.kbv.de/StructureDefinition/KBV_EX_Base_Medication_Type">
                            <valueCodeableConcept>
                                <coding>
                                    <system value="http://snomed.info/sct"/>
                                    <version value="http://snomed.info/sct/900000000000207008/version/20220331"/>
                                    <code value="763158003"/>
                                    <display value="Medicinal product (product)"/>
                                </coding>
                            </valueCodeableConcept>
                        </extension>
                        <extension url="https://fhir.kbv.de/StructureDefinition/KBV_EX_ERP_Medication_Category">
                            <valueCoding>
                                <system value="https://fhir.kbv.de/CodeSystem/KBV_CS_ERP_Medication_Category"/>
                                <code value="00"/>
                            </valueCoding>
                        </extension>
                        <extension url="https://fhir.kbv.de/StructureDefinition/KBV_EX_ERP_Medication_Vaccine">
                            <valueBoolean value="false"/>
                        </extension>
                        <extension url="http://fhir.de/StructureDefinition/normgroesse">
                            <valueCode value="N1"/>
                        </extension>
                        <code>
                            <coding>
                                <system value="http://fhir.de/CodeSystem/ifa/pzn"/>
                                <code value="06437011"/>
                            </coding>
                            <text value="Doxycyclin 100-1A Pharma Tabletten N1"/>
                        </code>
                        <form>
                            <coding>
                                <system value="https://fhir.kbv.de/CodeSystem/KBV_CS_SFHIR_KBV_DARREICHUNGSFORM"/>
                                <code value="TAB"/>
                            </coding>
                        </form>
                        <amount>
                            <numerator>
                                <extension url="https://fhir.kbv.de/StructureDefinition/KBV_EX_ERP_Medication_PackagingSize">
                                    <valueString value="10"/>
                                </extension>
                                <unit value="Stück"/>
                            </numerator>
                            <denominator>
                                <value value="1"/>
                            </denominator>
                        </amount>
                        <batch>
                            <lotNumber value="A9876543210123-87654"/>
                        </batch>
                    </Medication>
                </contained>
                <identifier>
                    <system value="https://gematik.de/fhir/erp/NamingSystem/GEM_ERP_NS_PrescriptionId"/>
                    <value value="160.115.468.135.035.50"/>
                </identifier>
                <status value="completed"/>
                <medicationReference>
                    <reference value="#43a4b03c-de10-40b9-a592-26cd42fd9bf9"/>
                </medicationReference>
                <subject>
                    <identifier>
                        <system value="http://fhir.de/sid/gkv/kvid-10"/>
                        <value value="K220635158"/>
                    </identifier>
                </subject>
                <performer>
                    <actor>
                        <identifier>
                            <system value="https://gematik.de/fhir/sid/telematik-id"/>
                            <value value="3-07.2.1234560000.10.789"/>
                        </identifier>
                    </actor>
                </performer>
                <whenHandedOver value="2024-11-19"/>
            </MedicationDispense>
        </resource>
    </entry>
</Bundle>