<Bundle xmlns="http://hl7.org/fhir">
   <id value="dc815a7b-b689-429c-8cca-f23c5967082d"></id>
   <meta>
      <profile value="https://fhir.gkvsv.de/StructureDefinition/GKVSV_PR_TA7_Sammelrechnung_Bundle|1.2"></profile>
      <tag>
         <display value="Beispiel der TA7/eAbrechnungsdaten."></display>
      </tag>
      <tag>
         <display value="ACHTUNG! Der fachlich korrekte Inhalt der Beispielinstanz kann nicht gew채hrleistet werden. Wir sind jederzeit dankbar f체r Hinweise auf Fehler oder f체r Verbesserungsvorschl채ge."></display>
      </tag>
   </meta>
   <identifier>
      <extension url="https://fhir.gkvsv.de/StructureDefinition/GKVSV_EX_ERP_TA7_Dateinummer">
         <valueString value="00001"></valueString>
      </extension>
      <system value="https://fhir.gkvsv.de/NamingSystem/GKVSV_NS_Dateiname"></system>
      <value value="ARZFHR21001"></value>
   </identifier>
   <type value="document"></type>
   <timestamp value="2021-06-10T10:00:00Z"></timestamp>
   <entry>
      <fullUrl value="urn:uuid:785754ef-18f5-4074-b0f0-29efebe9c736"></fullUrl>
      <resource>
         <Composition xmlns="http://hl7.org/fhir">
            <id value="785754ef-18f5-4074-b0f0-29efebe9c736"></id>
            <meta>
               <profile value="https://fhir.gkvsv.de/StructureDefinition/GKVSV_PR_TA7_Sammelrechnung_Composition|1.2"></profile>
            </meta>
            <extension url="https://fhir.gkvsv.de/StructureDefinition/GKVSV_EX_TA7_IK_Empfaenger">
               <valueIdentifier>
                  <system value="http://fhir.de/NamingSystem/arge-ik/iknr"></system>
                  <value value="104212516"></value>
               </valueIdentifier>
            </extension>
            <extension url="https://fhir.gkvsv.de/StructureDefinition/GKVSV_EX_TA7_IK_Kostentraeger">
               <valueIdentifier>
                  <system value="http://fhir.de/NamingSystem/arge-ik/iknr"></system>
                  <value value="104212505"></value>
               </valueIdentifier>
            </extension>
            <status value="final"></status>
            <type>
               <coding>
                  <system value="https://fhir.gkvsv.de/CodeSystem/GKVSV_CS_ERP_TA7"></system>
                  <code value="SR"></code>
                  <display value="Sammelrechnung"></display>
               </coding>
            </type>
            <date value="2021-05-31"></date>
            <author>
               <identifier>
                  <system value="http://fhir.de/NamingSystem/arge-ik/iknr"></system>
                  <value value="987654321"></value>
               </identifier>
            </author>
            <title value="elektronische Sammelrechnung"></title>
            <section>
               <code>
                  <coding>
                     <system value="https://fhir.gkvsv.de/CodeSystem/GKVSV_CS_ERP_TA7"></system>
                     <code value="LSR"></code>
                     <display value="Liste der Sammelrechnungen"></display>
                  </coding>
               </code>
               <entry>
                  <reference value="urn:uuid:62dbd1d5-22da-4c83-8807-48b870a61f5d"></reference>
               </entry>
            </section>
            <section>
               <code>
                  <coding>
                     <system value="https://fhir.gkvsv.de/CodeSystem/GKVSV_CS_ERP_TA7"></system>
                     <code value="R"></code>
                     <display value="Rechnungen"></display>
                  </coding>
               </code>
               <entry>
                  <reference value="urn:uuid:4f25d6a5-1c68-487f-91c5-70e31d2f2d79"></reference>
               </entry>
            </section>
         </Composition>
      </resource>
   </entry>
   <entry>
      <fullUrl value="urn:uuid:62dbd1d5-22da-4c83-8807-48b870a61f5d"></fullUrl>
      <resource>
         <List xmlns="http://hl7.org/fhir">
            <id value="62dbd1d5-22da-4c83-8807-48b870a61f5d"></id>
            <meta>
               <profile value="https://fhir.gkvsv.de/StructureDefinition/GKVSV_PR_TA7_Sammelrechnung_List|1.2"></profile>
            </meta>
            <status value="current"></status>
            <mode value="working"></mode>
            <entry>
               <item>
                  <reference value="urn:uuid:dc815a7b-b689-429c-8cca-f23c5967082d"></reference>
               </item>
            </entry>
         </List>
      </resource>
   </entry>
   <entry>
      <fullUrl value="urn:uuid:4f25d6a5-1c68-487f-91c5-70e31d2f2d79"></fullUrl>
      <resource>
         <Invoice xmlns="http://hl7.org/fhir">
            <id value="4f25d6a5-1c68-487f-91c5-70e31d2f2d79"></id>
            <meta>
               <profile value="https://fhir.gkvsv.de/StructureDefinition/GKVSV_PR_TA7_Rechnung|1.2"></profile>
            </meta>
            <extension url="https://fhir.gkvsv.de/StructureDefinition/GKVSV_EX_ERP_TA7_Abrechnungszeitraum">
               <valueDateTime value="2021-05-31"></valueDateTime>
            </extension>
            <extension url="https://fhir.gkvsv.de/StructureDefinition/GKVSV_EX_ERP_RezeptBundleReferenz">
               <extension url="lineItem">
                  <valueReference>
                     <reference value="urn:uuid:db1d2807-a54c-4799-a5be-ab555a77d103"></reference>
                  </valueReference>
               </extension>
            </extension>
            <identifier>
               <system value="https://fhir.gkvsv.de/NamingSystem/GKVSV_NS_Sammelrechnungsnummer"></system>
               <value value="104212505-01-100621"></value>
            </identifier>
            <status value="issued"></status>
            <type>
               <coding>
                  <system value="https://fhir.gkvsv.de/CodeSystem/GKVSV_CS_ERP_Rechnungsart"></system>
                  <code value="3"></code>
               </coding>
            </type>
            <recipient>
               <identifier>
                  <system value="http://fhir.de/NamingSystem/arge-ik/iknr"></system>
                  <value value="104212505"></value>
               </identifier>
            </recipient>
            <date value="2021-06-10"></date>
         </Invoice>
      </resource>
   </entry>
   <entry>
      <fullUrl value="urn:uuid:db1d2807-a54c-4799-a5be-ab555a77d103"></fullUrl>
      <resource>
         <Bundle xmlns="http://hl7.org/fhir">
            <id value="db1d2807-a54c-4799-a5be-ab555a77d103"></id>
            <meta>
               <profile value="https://fhir.gkvsv.de/StructureDefinition/GKVSV_PR_TA7_RezeptBundle|1.2"></profile>
            </meta>
            <type value="collection"></type>
            <entry>
               <link>
                  <relation value="item"></relation>
                  <url value="https://fhir.kbv.de/StructureDefinition/KBV_PR_ERP_Bundle"></url>
               </link>
               <fullUrl value="urn:uuid:7cbfa3cd-598e-4afc-aa99-9cc93bbb0253"></fullUrl>
               <resource>
                  <Binary xmlns="http://hl7.org/fhir">
                     <id value="7cbfa3cd-598e-4afc-aa99-9cc93bbb0253"></id>
                     <meta>
                        <profile value="https://gematik.de/fhir/StructureDefinition/ErxBinary"></profile>
                     </meta>
                     <contentType value="application/pkcs7-mime"></contentType>
                     <data value=""></data>
                  </Binary>
               </resource>
            </entry>
            <entry>
               <link>
                  <relation value="item"></relation>
                  <url value="https://gematik.de/fhir/StructureDefinition/ErxReceipt"></url>
               </link>
               <fullUrl value="urn:uuid:58fbedb2-54ed-4ef8-9b48-650b7b4a28ad"></fullUrl>
               <resource>
                  <Binary xmlns="http://hl7.org/fhir">
                     <id value="58fbedb2-54ed-4ef8-9b48-650b7b4a28ad"></id>
                     <meta>
                        <profile value="https://gematik.de/fhir/StructureDefinition/ErxBinary"></profile>
                     </meta>
                     <contentType value="application/pkcs7-mime"></contentType>
                     <data value=""></data>
                  </Binary>
               </resource>
            </entry>
            <entry>
               <link>
                  <relation value="item"></relation>
                  <url value="http://fhir.abda.de/eRezeptAbgabedaten/StructureDefinition/DAV-PR-ERP-AbgabedatenBundle"></url>
               </link>
               <fullUrl value="urn:uuid:ea421499-ec05-433d-95e6-c6e40cf45721"></fullUrl>
               <resource>
                  <Binary xmlns="http://hl7.org/fhir">
                     <id value="ea421499-ec05-433d-95e6-c6e40cf45721"></id>
                     <meta>
                        <profile value="https://gematik.de/fhir/StructureDefinition/ErxBinary"></profile>
                     </meta>
                     <contentType value="application/pkcs7-mime"></contentType>
                     <data value=""></data>
                  </Binary>
               </resource>
            </entry>
            <entry>
               <link>
                  <relation value="item"></relation>
                  <url value="https://fhir.gkvsv.de/StructureDefinition/GKVSV_PR_ERP_eAbrechnungsdaten"></url>
               </link>
               <fullUrl value="urn:uuid:a47f834d-3c2b-4751-a547-58d1f3a8cfa8"></fullUrl>
               <resource>
                  <Invoice xmlns="http://hl7.org/fhir">
                     <id value="a47f834d-3c2b-4751-a547-58d1f3a8cfa8"></id>
                     <meta>
                        <profile value="https://fhir.gkvsv.de/StructureDefinition/GKVSV_PR_ERP_eAbrechnungsdaten|1.2"></profile>
                     </meta>
                     <extension url="https://fhir.gkvsv.de/StructureDefinition/GKVSV_EX_ERP_Irrlaeufer">
                        <valueBoolean value="false"></valueBoolean>
                     </extension>
                     <identifier>
                        <system value="https://gematik.de/fhir/NamingSystem/PrescriptionID"></system>
                        <value value="160.000.000.000.002.51"></value>
                     </identifier>
                     <identifier>
                        <system value="https://fhir.gkvsv.de/NamingSystem/GKVSV_NS_Belegnummer"></system>
                        <value value="2105000000027654321"></value>
                     </identifier>
                     <status value="issued"></status>
                     <issuer>
                        <extension url="https://fhir.gkvsv.de/StructureDefinition/GKVSV_EX_ERP_LE_Sitz">
                           <valueCoding>
                              <system value="https://fhir.gkvsv.de/CodeSystem/GKVSV_CS_ERP_Leistungserbringer_Sitz"></system>
                              <code value="1"></code>
                           </valueCoding>
                        </extension>
                        <identifier>
                           <type>
                              <coding>
                                 <system value="https://fhir.gkvsv.de/CodeSystem/GKVSV_CS_ERP_Leistungserbringertyp"></system>
                                 <code value="A"></code>
                              </coding>
                           </type>
                           <system value="http://fhir.de/NamingSystem/arge-ik/iknr"></system>
                           <value value="123456789"></value>
                        </identifier>
                     </issuer>
                     <lineItem>
                        <extension url="https://fhir.gkvsv.de/StructureDefinition/GKVSV_EX_ERP_Positionstyp">
                           <valueCodeableConcept>
                              <coding>
                                 <system value="https://fhir.gkvsv.de/CodeSystem/GKVSV_CS_ERP_Positionstyp"></system>
                                 <code value="1"></code>
                                 <display value="체brige Position"></display>
                              </coding>
                           </valueCodeableConcept>
                        </extension>
                        <extension url="https://fhir.gkvsv.de/StructureDefinition/GKVSV_EX_ERP_VAT_VALUE">
                           <valueMoney>
                              <value value="2.47"></value>
                              <currency value="EUR"></currency>
                           </valueMoney>
                        </extension>
                        <extension url="https://fhir.gkvsv.de/StructureDefinition/GKVSV_EX_ERP_Import">
                           <valueCodeableConcept>
                              <coding>
                                 <system value="https://fhir.gkvsv.de/CodeSystem/GKVSV_CS_ERP_Import"></system>
                                 <code value="0"></code>
                              </coding>
                           </valueCodeableConcept>
                        </extension>
                        <sequence value="1"></sequence>
                        <chargeItemCodeableConcept>
                           <coding>
                              <system value="http://terminology.hl7.org/CodeSystem/v3-NullFlavor"></system>
                              <code value="UNC"></code>
                           </coding>
                        </chargeItemCodeableConcept>
                        <priceComponent>
                           <type value="deduction"></type>
                           <code>
                              <coding>
                                 <system value="https://fhir.gkvsv.de/CodeSystem/GKVSV_CS_ERP_ZuAbschlagKey"></system>
                                 <code value="R001"></code>
                              </coding>
                           </code>
                           <amount>
                              <value value="-1.77"></value>
                              <currency value="EUR"></currency>
                           </amount>
                        </priceComponent>
                     </lineItem>
                  </Invoice>
               </resource>
            </entry>
         </Bundle>
      </resource>
   </entry>
</Bundle>