<?xml version="1.0" encoding="UTF-8"?>
<Bundle xmlns="http://hl7.org/fhir">
   <id value="396c8baa-f2b5-4997-880d-02505aefa7db"/>
   <meta>
      <profile value="https://fhir.gkvsv.de/StructureDefinition/GKVSV_PR_TA7_Sammelrechnung_Bundle|1.0.6"/>
   </meta>
   <identifier>
      <extension url="https://fhir.gkvsv.de/StructureDefinition/GKVSV_EX_ERP_TA7_Dateinummer">
         <valueString value="00001"/>
      </extension>
      <system value="https://fhir.gkvsv.de/NamingSystem/GKVSV_NS_Dateiname"/>
      <value value="ARZFHR21001"/>
   </identifier>
   <type value="document"/>
   <timestamp value="2021-08-10T10:00:00Z"/>
   <entry>
      <fullUrl value="urn:uuid:8f579d55-8bda-42d0-b116-cc1d1257b8f4"/>
      <resource>
         <Composition>
            <id value="8f579d55-8bda-42d0-b116-cc1d1257b8f4"/>
            <meta>
               <profile value="https://fhir.gkvsv.de/StructureDefinition/GKVSV_PR_TA7_Sammelrechnung_Composition|1.0.6"/>
            </meta>
            <extension url="https://fhir.gkvsv.de/StructureDefinition/GKVSV_EX_TA7_IK_Empfaenger">
               <valueIdentifier>
                  <system value="http://fhir.de/NamingSystem/arge-ik/iknr"/>
                  <value value="101575519"/>
               </valueIdentifier>
            </extension>
            <extension url="https://fhir.gkvsv.de/StructureDefinition/GKVSV_EX_TA7_IK_Kostentraeger">
               <valueIdentifier>
                  <system value="http://fhir.de/NamingSystem/arge-ik/iknr"/>
                  <value value="101575519"/>
               </valueIdentifier>
            </extension>
            <status value="final"/>
            <type>
               <coding>
                  <system value="https://fhir.gkvsv.de/CodeSystem/GKVSV_CS_ERP_TA7"/>
                  <code value="SR"/>
                  <display value="Sammelrechnung"/>
               </coding>
            </type>
            <date value="2021-07-31"/>
            <author>
               <identifier>
                  <system value="http://fhir.de/NamingSystem/arge-ik/iknr"/>
                  <value value="987654321"/>
               </identifier>
            </author>
            <title value="elektronische Sammelrechnung"/>
            <section>
               <code>
                  <coding>
                     <system value="https://fhir.gkvsv.de/CodeSystem/GKVSV_CS_ERP_TA7"/>
                     <code value="LSR"/>
                     <display value="Liste der Sammelrechnungen"/>
                  </coding>
               </code>
               <entry>
                  <reference value="urn:uuid:8b83ed44-2438-49aa-8d80-895c00ae9883"/>
               </entry>
            </section>
            <section>
               <code>
                  <coding>
                     <system value="https://fhir.gkvsv.de/CodeSystem/GKVSV_CS_ERP_TA7"/>
                     <code value="R"/>
                     <display value="Rechnungen"/>
                  </coding>
               </code>
               <entry>
                  <reference value="urn:uuid:a9423218-80b5-4e49-9b4e-89dcb3536bc2"/>
               </entry>
            </section>
         </Composition>
      </resource>
   </entry>
   <entry>
      <fullUrl value="urn:uuid:8b83ed44-2438-49aa-8d80-895c00ae9883"/>
      <resource>
         <List>
            <id value="8b83ed44-2438-49aa-8d80-895c00ae9883"/>
            <meta>
               <profile value="https://fhir.gkvsv.de/StructureDefinition/GKVSV_PR_TA7_Sammelrechnung_List|1.0.6"/>
            </meta>
            <status value="current"/>
            <mode value="working"/>
            <entry>
               <item>
                  <reference value="Bundle/396c8baa-f2b5-4997-880d-02505aefa7db"/>
               </item>
            </entry>
         </List>
      </resource>
   </entry>
   <entry>
      <fullUrl value="urn:uuid:a9423218-80b5-4e49-9b4e-89dcb3536bc2"/>
      <resource>
         <Invoice>
            <id value="a9423218-80b5-4e49-9b4e-89dcb3536bc2"/>
            <meta>
               <profile value="https://fhir.gkvsv.de/StructureDefinition/GKVSV_PR_TA7_Rechnung|1.0.6"/>
            </meta>
            <extension url="https://fhir.gkvsv.de/StructureDefinition/GKVSV_EX_ERP_TA7_Abrechnungszeitraum">
               <valueDateTime value="2021-07-31"/>
            </extension>
            <extension url="https://fhir.gkvsv.de/StructureDefinition/GKVSV_EX_ERP_RezeptBundleReferenz">
               <extension url="lineItem">
                  <valueReference>
                     <reference value="urn:uuid:7d9c7d31-3890-43d8-ade8-4a424597d11c"/>
                  </valueReference>
               </extension>
            </extension>
            <identifier>
               <system value="https://fhir.gkvsv.de/NamingSystem/GKVSV_NS_Sammelrechnungsnummer"/>
               <value value="101576623-01-100821"/>
            </identifier>
            <status value="issued"/>
            <type>
               <coding>
                  <system value="https://fhir.gkvsv.de/CodeSystem/GKVSV_CS_ERP_Rechnungsart"/>
                  <code value="3"/>
               </coding>
            </type>
            <recipient>
               <identifier>
                  <system value="http://fhir.de/NamingSystem/arge-ik/iknr"/>
                  <value value="101575519"/>
               </identifier>
            </recipient>
            <date value="2021-08-10"/>
         </Invoice>
      </resource>
   </entry>
   <entry>
      <fullUrl value="urn:uuid:7d9c7d31-3890-43d8-ade8-4a424597d11c"/>
      <resource>
         <Bundle>
            <id value="7d9c7d31-3890-43d8-ade8-4a424597d11c"/>
            <meta>
               <profile value="https://fhir.gkvsv.de/StructureDefinition/GKVSV_PR_TA7_RezeptBundle|1.0.6"/>
            </meta>
            <type value="collection"/>
            <entry>
               <link>
                  <relation value="item"/>
                  <url value="https://fhir.kbv.de/StructureDefinition/KBV_PR_ERP_Bundle"/>
               </link>
               <fullUrl value="urn:uuid:266b5bbf-86b2-45dc-933f-58663ab2a5d7"/>
               <resource>
                  <Binary>
                     <id value="266b5bbf-86b2-45dc-933f-58663ab2a5d7"/>
                     <meta>
                        <profile value="https://gematik.de/fhir/StructureDefinition/ErxBinary"/>
                     </meta>
                     <contentType value="application/pkcs7-mime"/>
                     <data value=""/>
                  </Binary>
               </resource>
            </entry>
            <entry>
               <link>
                  <relation value="item"/>
                  <url value="https://gematik.de/fhir/StructureDefinition/ErxReceipt"/>
               </link>
               <fullUrl value="urn:uuid:4be5b007-c48f-4cee-95bf-e2cea15880a3"/>
               <resource>
                  <Bundle>
                     <id value="4be5b007-c48f-4cee-95bf-e2cea15880a3"/>
                     <meta>
                        <profile value="https://gematik.de/fhir/StructureDefinition/ErxReceipt"/>
                     </meta>
                     <identifier>
                        <system value="https://gematik.de/fhir/NamingSystem/PrescriptionID"/>
                        <value value="160.000.000.000.006.39"/>
                     </identifier>
                     <type value="document"/>
                     <timestamp value="2021-07-27T09:30:00Z"/>
                     <link>
                        <relation value="self"/>
                        <url value="https://erp-ref.zentral.erp.splitdns.ti-dienste.de/Task/160.000.000.000.006.39/$close/"/>
                     </link>
                     <entry>
                        <fullUrl value="urn:uuid:cb72d945-547e-4cbc-a6ae-2c40b8b255b6"/>
                        <resource>
                           <Composition>
                              <id value="cb72d945-547e-4cbc-a6ae-2c40b8b255b6"/>
                              <meta>
                                 <profile value="https://gematik.de/fhir/StructureDefinition/ErxComposition"/>
                              </meta>
                              <extension url="https://gematik.de/fhir/StructureDefinition/BeneficiaryExtension">
                                 <valueIdentifier>
                                    <system value="https://gematik.de/fhir/NamingSystem/TelematikID"/>
                                    <value value="606358757"/>
                                 </valueIdentifier>
                              </extension>
                              <status value="final"/>
                              <type>
                                 <coding>
                                    <system value="https://gematik.de/fhir/CodeSystem/Documenttype"/>
                                    <code value="3"/>
                                    <display value="Receipt"/>
                                 </coding>
                              </type>
                              <date value="2021-07-27T09:30:00Z"/>
                              <author>
                                 <reference value="https://gematik.erppre.de:443/Device"/>
                              </author>
                              <title value="Quittung"/>
                              <event>
                                 <period>
                                    <start value="2021-07-27T08:45:00Z"/>
                                    <end value="2021-07-27T09:30:00Z"/>
                                 </period>
                              </event>
                           </Composition>
                        </resource>
                     </entry>
                     <entry>
                        <fullUrl value="https://gematik.erppre.de:443/Device"/>
                        <resource>
                           <Device>
                              <id value="1"/>
                              <meta>
                                 <profile value="https://gematik.de/fhir/StructureDefinition/ErxDevice"/>
                              </meta>
                              <status value="active"/>
                              <serialNumber value="0.3.1"/>
                              <deviceName>
                                 <name value="E-Rezept Fachdienst"/>
                                 <type value="user-friendly-name"/>
                              </deviceName>
                              <version>
                                 <value value="0.3.1"/>
                              </version>
                              <contact>
                                 <system value="email"/>
                                 <value value="betrieb@gematik.de"/>
                              </contact>
                           </Device>
                        </resource>
                     </entry>
                     <signature>
                        <type>
                           <system value="urn:iso-astm:E1762-95:2013"/>
                           <code value="1.2.840.10065.1.12.1.1"/>
                        </type>
                        <when value="2021-07-27T09:30:00Z"/>
                        <who>
                           <reference value="https://gematik.erppre.de:443/Device"/>
                        </who>
                        <sigFormat value="application/pkcs7-mime"/>
                        <data value=""/>
                     </signature>
                  </Bundle>
               </resource>
            </entry>
            <entry>
               <link>
                  <relation value="item"/>
                  <url value="http://fhir.abda.de/eRezeptAbgabedaten/StructureDefinition/DAV-PR-ERP-AbgabedatenBundle"/>
               </link>
               <fullUrl value="urn:uuid:6abbe7da-e9cb-4d55-9577-232d23594b19"/>
               <resource>
                  <Binary>
                     <id value="6abbe7da-e9cb-4d55-9577-232d23594b19"/>
                     <meta>
                        <profile value="https://gematik.de/fhir/StructureDefinition/ErxBinary"/>
                     </meta>
                     <contentType value="application/pkcs7-mime"/>
                     <data value=""/>
                  </Binary>
               </resource>
            </entry>
            <entry>
               <link>
                  <relation value="item"/>
                  <url value="https://fhir.gkvsv.de/StructureDefinition/GKVSV_PR_ERP_eAbrechnungsdaten"/>
               </link>
               <fullUrl value="urn:uuid:f20eeb4d-2ff6-4d72-b2db-3e5b6870bebf"/>
               <resource>
                  <Invoice>
                     <id value="f20eeb4d-2ff6-4d72-b2db-3e5b6870bebf"/>
                     <meta>
                        <profile value="https://fhir.gkvsv.de/StructureDefinition/GKVSV_PR_ERP_eAbrechnungsdaten|1.0.6"/>
                     </meta>
                     <extension url="https://fhir.gkvsv.de/StructureDefinition/GKVSV_EX_ERP_Irrlaeufer">
                        <valueBoolean value="false"/>
                     </extension>
                     <identifier>
                        <system value="https://gematik.de/fhir/NamingSystem/PrescriptionID"/>
                        <value value="160.000.000.000.006.39"/>
                     </identifier>
                     <identifier>
                        <system value="https://fhir.gkvsv.de/NamingSystem/GKVSV_NS_Belegnummer"/>
                        <value value="2107000000057654321"/>
                     </identifier>
                     <status value="issued"/>
                     <issuer>
                        <extension url="https://fhir.gkvsv.de/StructureDefinition/GKVSV_EX_ERP_LE_Sitz">
                           <valueCoding>
                              <system value="https://fhir.gkvsv.de/CodeSystem/GKVSV_CS_ERP_Leistungserbringer_Sitz"/>
                              <code value="1"/>
                           </valueCoding>
                        </extension>
                        <identifier>
                           <type>
                              <coding>
                                 <system value="https://fhir.gkvsv.de/CodeSystem/GKVSV_CS_ERP_Leistungserbringertyp"/>
                                 <code value="A"/>
                              </coding>
                           </type>
                           <system value="http://fhir.de/NamingSystem/arge-ik/iknr"/>
                           <value value="308412345"/>
                        </identifier>
                     </issuer>
                     <lineItem>
                        <extension url="https://fhir.gkvsv.de/StructureDefinition/GKVSV_EX_ERP_Positionstyp">
                           <valueCodeableConcept>
                              <coding>
                                 <system value="https://fhir.gkvsv.de/CodeSystem/GKVSV_CS_ERP_Positionstyp"/>
                                 <code value="1"/>
                                 <display value="übrige Position"/>
                              </coding>
                           </valueCodeableConcept>
                        </extension>
                        <extension url="https://fhir.gkvsv.de/StructureDefinition/GKVSV_EX_ERP_VAT_VALUE">
                           <valueMoney>
                              <value value="7.18"/>
                              <currency value="EUR"/>
                           </valueMoney>
                        </extension>
                        <extension url="https://fhir.gkvsv.de/StructureDefinition/GKVSV_EX_ERP_Import">
                           <valueCodeableConcept>
                              <coding>
                                 <system value="https://fhir.gkvsv.de/CodeSystem/GKVSV_CS_ERP_Import"/>
                                 <code value="0"/>
                              </coding>
                           </valueCodeableConcept>
                        </extension>
                        <sequence value="1"/>
                        <chargeItemCodeableConcept>
                           <coding>
                              <system value="http://terminology.hl7.org/CodeSystem/v3-NullFlavor"/>
                              <code value="UNC"/>
                           </coding>
                        </chargeItemCodeableConcept>
                        <priceComponent>
                           <type value="deduction"/>
                           <code>
                              <coding>
                                 <system value="https://fhir.gkvsv.de/CodeSystem/GKVSV_CS_ERP_ZuAbschlagKey"/>
                                 <code value="R001"/>
                              </coding>
                           </code>
                           <amount>
                              <value value="-1.77"/>
                              <currency value="EUR"/>
                           </amount>
                        </priceComponent>
                     </lineItem>
                  </Invoice>
               </resource>
            </entry>
         </Bundle>
      </resource>
   </entry>
</Bundle>
