<Bundle xmlns="http://hl7.org/fhir">
   <id value="ff28cb91-86c6-4f97-8f71-93e647c8a580"></id>
   <meta>
      <profile value="https://fhir.gkvsv.de/StructureDefinition/GKVSV_PR_TA7_Sammelrechnung_Bundle|1.0.6"></profile>
      <tag>
         <display value="Beispiel der TA7/eAbrechnungsdaten." />
      </tag>
      <tag>
         <display value="ACHTUNG! Der fachlich korrekte Inhalt der Beispielinstanz kann nicht gew채hrleistet werden. Wir sind jederzeit dankbar f체r Hinweise auf Fehler oder f체r Verbesserungsvorschl채ge." />
      </tag>
   </meta>
   <identifier>
      <extension url="https://fhir.gkvsv.de/StructureDefinition/GKVSV_EX_ERP_TA7_Dateinummer">
         <valueString value="00002"></valueString>
      </extension>
      <system value="https://fhir.gkvsv.de/NamingSystem/GKVSV_NS_Dateiname"></system>
      <value value="ARZFHR21002"></value>
   </identifier>
   <type value="document"></type>
   <timestamp value="2021-06-02T10:00:00Z"></timestamp>
   <entry>
      <fullUrl value="urn:uuid:3387d6dc-b93e-4d1c-9846-75efbe17190b"></fullUrl>
      <resource>
         <Composition xmlns="http://hl7.org/fhir">
            <id value="3387d6dc-b93e-4d1c-9846-75efbe17190b"></id>
            <meta>
               <profile value="https://fhir.gkvsv.de/StructureDefinition/GKVSV_PR_TA7_Sammelrechnung_Composition|1.0.6"></profile>
            </meta>
            <extension url="https://fhir.gkvsv.de/StructureDefinition/GKVSV_EX_TA7_IK_Empfaenger">
               <valueIdentifier>
                  <system value="http://fhir.de/NamingSystem/arge-ik/iknr"></system>
                  <value value="104212516"></value>
               </valueIdentifier>
            </extension>
            <extension url="https://fhir.gkvsv.de/StructureDefinition/GKVSV_EX_TA7_IK_Kostentraeger">
               <valueIdentifier>
                  <system value="http://fhir.de/NamingSystem/arge-ik/iknr"></system>
                  <value value="104212505"></value>
               </valueIdentifier>
            </extension>
            <status value="final"></status>
            <type>
               <coding>
                  <system value="https://fhir.gkvsv.de/CodeSystem/GKVSV_CS_ERP_TA7"></system>
                  <code value="SR"></code>
                  <display value="Sammelrechnung"></display>
               </coding>
            </type>
            <date value="2021-05-31"></date>
            <author>
               <identifier>
                  <system value="http://fhir.de/NamingSystem/arge-ik/iknr"></system>
                  <value value="987654321"></value>
               </identifier>
            </author>
            <title value="elektronische Sammelrechnung"></title>
            <section>
               <code>
                  <coding>
                     <system value="https://fhir.gkvsv.de/CodeSystem/GKVSV_CS_ERP_TA7"></system>
                     <code value="LSR"></code>
                     <display value="Liste der Sammelrechnungen"></display>
                  </coding>
               </code>
               <entry>
                  <reference value="urn:uuid:50b35621-00b3-444c-80a7-55c99361a16e"></reference>
               </entry>
            </section>
            <section>
               <code>
                  <coding>
                     <system value="https://fhir.gkvsv.de/CodeSystem/GKVSV_CS_ERP_TA7"></system>
                     <code value="R"></code>
                     <display value="Rechnungen"></display>
                  </coding>
               </code>
               <entry>
                  <reference value="urn:uuid:1610c6f9-6057-45c0-94d4-783f28b5d980"></reference>
               </entry>
            </section>
         </Composition>
      </resource>
   </entry>
   <entry>
      <fullUrl value="urn:uuid:50b35621-00b3-444c-80a7-55c99361a16e"></fullUrl>
      <resource>
         <List xmlns="http://hl7.org/fhir">
            <id value="50b35621-00b3-444c-80a7-55c99361a16e"></id>
            <meta>
               <profile value="https://fhir.gkvsv.de/StructureDefinition/GKVSV_PR_TA7_Sammelrechnung_List|1.0.6"></profile>
            </meta>
            <status value="current"></status>
            <mode value="working"></mode>
            <entry>
               <item>
                  <reference value="Bundle/ff28cb91-86c6-4f97-8f71-93e647c8a580"></reference>
               </item>
            </entry>
         </List>
      </resource>
   </entry>
   <entry>
      <fullUrl value="urn:uuid:1610c6f9-6057-45c0-94d4-783f28b5d980"></fullUrl>
      <resource>
         <Invoice xmlns="http://hl7.org/fhir">
            <id value="1610c6f9-6057-45c0-94d4-783f28b5d980"></id>
            <meta>
               <profile value="https://fhir.gkvsv.de/StructureDefinition/GKVSV_PR_TA7_Rechnung|1.0.6"></profile>
            </meta>
            <extension url="https://fhir.gkvsv.de/StructureDefinition/GKVSV_EX_ERP_TA7_Abrechnungszeitraum">
               <valueDateTime value="2021-05-31"></valueDateTime>
            </extension>
            <extension url="https://fhir.gkvsv.de/StructureDefinition/GKVSV_EX_ERP_RezeptBundleReferenz">
               <extension url="lineItem">
                  <valueReference>
                     <reference value="urn:uuid:c066c6f9-2795-46b4-a445-d7b4b4da7d18"></reference>
                  </valueReference>
               </extension>
            </extension>
            <identifier>
               <system value="https://fhir.gkvsv.de/NamingSystem/GKVSV_NS_Sammelrechnungsnummer"></system>
               <value value="104212506-01-020621"></value>
            </identifier>
            <status value="issued"></status>
            <type>
               <coding>
                  <system value="https://fhir.gkvsv.de/CodeSystem/GKVSV_CS_ERP_Rechnungsart"></system>
                  <code value="6"></code>
               </coding>
            </type>
            <recipient>
               <identifier>
                  <system value="http://fhir.de/NamingSystem/arge-ik/iknr"></system>
                  <value value="104212505"></value>
               </identifier>
            </recipient>
            <date value="2021-06-02"></date>
         </Invoice>
      </resource>
   </entry>
   <entry>
      <fullUrl value="urn:uuid:c066c6f9-2795-46b4-a445-d7b4b4da7d18"></fullUrl>
      <resource>
         <Bundle xmlns="http://hl7.org/fhir">
            <id value="c066c6f9-2795-46b4-a445-d7b4b4da7d18"></id>
            <meta>
               <profile value="https://fhir.gkvsv.de/StructureDefinition/GKVSV_PR_TA7_RezeptBundle|1.0.6"></profile>
            </meta>
            <type value="collection"></type>
            <entry>
               <link>
                  <relation value="item"></relation>
                  <url value="https://fhir.kbv.de/StructureDefinition/KBV_PR_ERP_Bundle"></url>
               </link>
               <fullUrl value="urn:uuid:a1f93d2a-6872-454b-8154-e81d429269f0"></fullUrl>
               <resource>
                  <Binary xmlns="http://hl7.org/fhir">
                     <id value="a1f93d2a-6872-454b-8154-e81d429269f0"></id>
                     <meta>
                        <profile value="https://gematik.de/fhir/StructureDefinition/ErxBinary"></profile>
                     </meta>
                     <contentType value="application/pkcs7-mime"></contentType>
                     <data value=""></data>
                  </Binary>
               </resource>
            </entry>
            <entry>
               <link>
                  <relation value="item"></relation>
                  <url value="https://gematik.de/fhir/StructureDefinition/ErxReceipt"></url>
               </link>
               <fullUrl value="urn:uuid:86bb641f-3d58-4aad-b0a6-42a7c416782f"></fullUrl>
               <resource>
                  <Bundle xmlns="http://hl7.org/fhir">
                     <id value="86bb641f-3d58-4aad-b0a6-42a7c416782f"></id>
                     <meta>
                        <profile value="https://gematik.de/fhir/StructureDefinition/ErxReceipt"></profile>
                     </meta>
                     <identifier>
                        <system value="https://gematik.de/fhir/NamingSystem/PrescriptionID"></system>
                        <value value="160.100.000.000.001.39"></value>
                     </identifier>
                     <type value="document"></type>
                     <timestamp value="2021-05-27T09:30:00Z"></timestamp>
                     <link>
                        <relation value="self"></relation>
                        <url value="https://gematik.erppre.de:443/Task/160.100.000.000.001.39/$close"></url>
                     </link>
                     <entry>
                        <fullUrl value="urn:uuid:e3108372-8d89-42a4-aad8-a02b54833fc7"></fullUrl>
                        <resource>
                           <Composition xmlns="http://hl7.org/fhir">
                              <id value="e3108372-8d89-42a4-aad8-a02b54833fc7"></id>
                              <meta>
                                 <profile value="https://gematik.de/fhir/StructureDefinition/ErxComposition"></profile>
                              </meta>
                              <extension url="https://gematik.de/fhir/StructureDefinition/BeneficiaryExtension">
                                 <valueIdentifier>
                                    <system value="https://gematik.de/fhir/NamingSystem/TelematikID"></system>
                                    <value value="606358757"></value>
                                 </valueIdentifier>
                              </extension>
                              <status value="final"></status>
                              <type>
                                 <coding>
                                    <system value="https://gematik.de/fhir/CodeSystem/Documenttype"></system>
                                    <code value="3"></code>
                                    <display value="Receipt"></display>
                                 </coding>
                              </type>
                              <date value="2021-05-27T09:30:00Z"></date>
                              <author>
                                 <reference value="https://gematik.erppre.de:443/Device"></reference>
                              </author>
                              <title value="Quittung"></title>
                              <event>
                                 <period>
                                    <start value="2021-05-27T08:45:00Z"></start>
                                    <end value="2021-05-27T09:30:00Z"></end>
                                 </period>
                              </event>
                           </Composition>
                        </resource>
                     </entry>
                     <entry>
                        <fullUrl value="https://gematik.erppre.de:443/Device"></fullUrl>
                        <resource>
                           <Device xmlns="http://hl7.org/fhir">
                              <id value="1"></id>
                              <meta>
                                 <profile value="https://gematik.de/fhir/StructureDefinition/ErxDevice"></profile>
                              </meta>
                              <status value="active"></status>
                              <serialNumber value="0.3.1"></serialNumber>
                              <deviceName>
                                 <name value="E-Rezept Fachdienst"></name>
                                 <type value="user-friendly-name"></type>
                              </deviceName>
                              <version>
                                 <value value="0.3.1"></value>
                              </version>
                              <contact>
                                 <system value="email"></system>
                                 <value value="betrieb@gematik.de"></value>
                              </contact>
                           </Device>
                        </resource>
                     </entry>
                     <signature>
                        <type>
                           <system value="urn:iso-astm:E1762-95:2013"></system>
                           <code value="1.2.840.10065.1.12.1.1"></code>
                        </type>
                        <when value="2021-05-27T09:30:00Z"></when>
                        <who>
                           <reference value="https://gematik.erppre.de:443/Device"></reference>
                        </who>
                        <sigFormat value="application/pkcs7-mime"></sigFormat>
                        <data value=""></data>
                     </signature>
                  </Bundle>
               </resource>
            </entry>
            <entry>
               <link>
                  <relation value="item"></relation>
                  <url value="http://fhir.abda.de/eRezeptAbgabedaten/StructureDefinition/DAV-PR-ERP-AbgabedatenBundle"></url>
               </link>
               <fullUrl value="urn:uuid:c1663654-8658-4563-b61e-1f7c66828f01"></fullUrl>
               <resource>
                  <Binary xmlns="http://hl7.org/fhir">
                     <id value="c1663654-8658-4563-b61e-1f7c66828f01"></id>
                     <meta>
                        <profile value="https://gematik.de/fhir/StructureDefinition/ErxBinary"></profile>
                     </meta>
                     <contentType value="application/pkcs7-mime"></contentType>
                     <data value=""></data>
                  </Binary>
               </resource>
            </entry>
            <entry>
               <link>
                  <relation value="item"></relation>
                  <url value="https://fhir.gkvsv.de/StructureDefinition/GKVSV_PR_ERP_eAbrechnungsdaten"></url>
               </link>
               <fullUrl value="urn:uuid:c69efd0e-9c36-44e5-bc23-3f480724dd7d"></fullUrl>
               <resource>
                  <Invoice xmlns="http://hl7.org/fhir">
                     <id value="c69efd0e-9c36-44e5-bc23-3f480724dd7d"></id>
                     <meta>
                        <profile value="https://fhir.gkvsv.de/StructureDefinition/GKVSV_PR_ERP_eAbrechnungsdaten|1.0.6"></profile>
                     </meta>
                     <extension url="https://fhir.gkvsv.de/StructureDefinition/GKVSV_EX_ERP_Irrlaeufer">
                        <valueBoolean value="false"></valueBoolean>
                     </extension>
                     <identifier>
                        <system value="https://gematik.de/fhir/NamingSystem/PrescriptionID"></system>
                        <value value="160.100.000.000.001.39"></value>
                     </identifier>
                     <identifier>
                        <system value="https://fhir.gkvsv.de/NamingSystem/GKVSV_NS_Belegnummer"></system>
                        <value value="2105000001051234561"></value>
                     </identifier>
                     <status value="issued"></status>
                     <issuer>
                        <extension url="https://fhir.gkvsv.de/StructureDefinition/GKVSV_EX_ERP_LE_Sitz">
                           <valueCoding>
                              <system value="https://fhir.gkvsv.de/CodeSystem/GKVSV_CS_ERP_Leistungserbringer_Sitz"></system>
                              <code value="1"></code>
                           </valueCoding>
                        </extension>
                        <identifier>
                           <type>
                              <coding>
                                 <system value="https://fhir.gkvsv.de/CodeSystem/GKVSV_CS_ERP_Leistungserbringertyp"></system>
                                 <code value="A"></code>
                              </coding>
                           </type>
                           <system value="http://fhir.de/NamingSystem/arge-ik/iknr"></system>
                           <value value="123456789"></value>
                        </identifier>
                     </issuer>
                     <lineItem>
                        <extension url="https://fhir.gkvsv.de/StructureDefinition/GKVSV_EX_ERP_Positionstyp">
                           <valueCodeableConcept>
                              <coding>
                                 <system value="https://fhir.gkvsv.de/CodeSystem/GKVSV_CS_ERP_Positionstyp"></system>
                                 <code value="1"></code>
                                 <display value="체brige Position"></display>
                              </coding>
                           </valueCodeableConcept>
                        </extension>
                        <extension url="https://fhir.gkvsv.de/StructureDefinition/GKVSV_EX_ERP_VAT_VALUE">
                           <valueMoney>
                              <value value="6.08"></value>
                              <currency value="EUR"></currency>
                           </valueMoney>
                        </extension>
                        <extension url="https://fhir.gkvsv.de/StructureDefinition/GKVSV_EX_ERP_Import">
                           <valueCodeableConcept>
                              <coding>
                                 <system value="https://fhir.gkvsv.de/CodeSystem/GKVSV_CS_ERP_Import"></system>
                                 <code value="0"></code>
                              </coding>
                           </valueCodeableConcept>
                        </extension>
                        <sequence value="1"></sequence>
                        <chargeItemCodeableConcept>
                           <coding>
                              <system value="http://terminology.hl7.org/CodeSystem/v3-NullFlavor"></system>
                              <code value="UNC"></code>
                           </coding>
                        </chargeItemCodeableConcept>
                        <priceComponent>
                           <type value="deduction"></type>
                           <code>
                              <coding>
                                 <system value="https://fhir.gkvsv.de/CodeSystem/GKVSV_CS_ERP_ZuAbschlagKey"></system>
                                 <code value="R001"></code>
                              </coding>
                           </code>
                           <amount>
                              <value value="-1.77"></value>
                              <currency value="EUR"></currency>
                           </amount>
                        </priceComponent>
                     </lineItem>
                  </Invoice>
               </resource>
            </entry>
         </Bundle>
      </resource>
   </entry>
</Bundle>