<?xml version="1.0" encoding="UTF-8"?>
<Bundle xmlns="http://hl7.org/fhir">
   <id value="ae78f1cb-e91c-4f13-b924-70af354a31b6"/>
   <meta>
      <profile value="https://fhir.gkvsv.de/StructureDefinition/GKVSV_PR_TA7_Sammelrechnung_Bundle|1.0.6"/>
   </meta>
   <identifier>
      <extension url="https://fhir.gkvsv.de/StructureDefinition/GKVSV_EX_ERP_TA7_Dateinummer">
         <valueString value="00002"/>
      </extension>
      <system value="https://fhir.gkvsv.de/NamingSystem/GKVSV_NS_Dateiname"/>
      <value value="ARZFHR21002"/>
   </identifier>
   <type value="document"/>
   <timestamp value="2021-08-02T10:00:00Z"/>
   <entry>
      <fullUrl value="urn:uuid:1b62296d-124d-45a4-be12-ae41cf710859"/>
      <resource>
         <Composition>
            <id value="1b62296d-124d-45a4-be12-ae41cf710859"/>
            <meta>
               <profile value="https://fhir.gkvsv.de/StructureDefinition/GKVSV_PR_TA7_Sammelrechnung_Composition|1.0.6"/>
            </meta>
            <extension url="https://fhir.gkvsv.de/StructureDefinition/GKVSV_EX_TA7_IK_Empfaenger">
               <valueIdentifier>
                  <system value="http://fhir.de/NamingSystem/arge-ik/iknr"/>
                  <value value="104027544"/>
               </valueIdentifier>
            </extension>
            <extension url="https://fhir.gkvsv.de/StructureDefinition/GKVSV_EX_TA7_IK_Kostentraeger">
               <valueIdentifier>
                  <system value="http://fhir.de/NamingSystem/arge-ik/iknr"/>
                  <value value="108035612"/>
               </valueIdentifier>
            </extension>
            <status value="final"/>
            <type>
               <coding>
                  <system value="https://fhir.gkvsv.de/CodeSystem/GKVSV_CS_ERP_TA7"/>
                  <code value="SR"/>
                  <display value="Sammelrechnung"/>
               </coding>
            </type>
            <date value="2021-07-31"/>
            <author>
               <identifier>
                  <system value="http://fhir.de/NamingSystem/arge-ik/iknr"/>
                  <value value="987654321"/>
               </identifier>
            </author>
            <title value="elektronische Sammelrechnung"/>
            <section>
               <code>
                  <coding>
                     <system value="https://fhir.gkvsv.de/CodeSystem/GKVSV_CS_ERP_TA7"/>
                     <code value="LSR"/>
                     <display value="Liste der Sammelrechnungen"/>
                  </coding>
               </code>
               <entry>
                  <reference value="urn:uuid:c37c4e66-9075-4148-aa5b-708f2270ef17"/>
               </entry>
            </section>
            <section>
               <code>
                  <coding>
                     <system value="https://fhir.gkvsv.de/CodeSystem/GKVSV_CS_ERP_TA7"/>
                     <code value="R"/>
                     <display value="Rechnungen"/>
                  </coding>
               </code>
               <entry>
                  <reference value="urn:uuid:8e5e7905-b0e7-46c8-94f9-ee15584fa25e"/>
               </entry>
            </section>
         </Composition>
      </resource>
   </entry>
   <entry>
      <fullUrl value="urn:uuid:c37c4e66-9075-4148-aa5b-708f2270ef17"/>
      <resource>
         <List>
            <id value="c37c4e66-9075-4148-aa5b-708f2270ef17"/>
            <meta>
               <profile value="https://fhir.gkvsv.de/StructureDefinition/GKVSV_PR_TA7_Sammelrechnung_List|1.0.6"/>
            </meta>
            <status value="current"/>
            <mode value="working"/>
            <entry>
               <item>
                  <reference value="Bundle/ae78f1cb-e91c-4f13-b924-70af354a31b6"/>
               </item>
            </entry>
         </List>
      </resource>
   </entry>
   <entry>
      <fullUrl value="urn:uuid:8e5e7905-b0e7-46c8-94f9-ee15584fa25e"/>
      <resource>
         <Invoice>
            <id value="8e5e7905-b0e7-46c8-94f9-ee15584fa25e"/>
            <meta>
               <profile value="https://fhir.gkvsv.de/StructureDefinition/GKVSV_PR_TA7_Rechnung|1.0.6"/>
            </meta>
            <extension url="https://fhir.gkvsv.de/StructureDefinition/GKVSV_EX_ERP_TA7_Abrechnungszeitraum">
               <valueDateTime value="2021-07-31"/>
            </extension>
            <extension url="https://fhir.gkvsv.de/StructureDefinition/GKVSV_EX_ERP_RezeptBundleReferenz">
               <extension url="lineItem">
                  <valueReference>
                     <reference value="urn:uuid:47c920b6-5ffe-4fe8-8fcc-b0fd5b34ff37"/>
                  </valueReference>
               </extension>
            </extension>
            <identifier>
               <system value="https://fhir.gkvsv.de/NamingSystem/GKVSV_NS_Sammelrechnungsnummer"/>
               <value value="104212506-01-020821"/>
            </identifier>
            <status value="issued"/>
            <type>
               <coding>
                  <system value="https://fhir.gkvsv.de/CodeSystem/GKVSV_CS_ERP_Rechnungsart"/>
                  <code value="6"/>
               </coding>
            </type>
            <recipient>
               <identifier>
                  <system value="http://fhir.de/NamingSystem/arge-ik/iknr"/>
                  <value value="108035612"/>
               </identifier>
            </recipient>
            <date value="2021-08-02"/>
         </Invoice>
      </resource>
   </entry>
   <entry>
      <fullUrl value="urn:uuid:47c920b6-5ffe-4fe8-8fcc-b0fd5b34ff37"/>
      <resource>
         <Bundle>
            <id value="47c920b6-5ffe-4fe8-8fcc-b0fd5b34ff37"/>
            <meta>
               <profile value="https://fhir.gkvsv.de/StructureDefinition/GKVSV_PR_TA7_RezeptBundle|1.0.6"/>
            </meta>
            <type value="collection"/>
            <entry>
               <link>
                  <relation value="item"/>
                  <url value="https://fhir.kbv.de/StructureDefinition/KBV_PR_ERP_Bundle"/>
               </link>
               <fullUrl value="urn:uuid:5fe8fcb2-4681-47b9-b047-df1d2da2de5b"/>
               <resource>
                  <Binary>
                     <id value="5fe8fcb2-4681-47b9-b047-df1d2da2de5b"/>
                     <meta>
                        <profile value="https://gematik.de/fhir/StructureDefinition/ErxBinary"/>
                     </meta>
                     <contentType value="application/pkcs7-mime"/>
                     <data value=""/>
                  </Binary>
               </resource>
            </entry>
            <entry>
               <link>
                  <relation value="item"/>
                  <url value="https://gematik.de/fhir/StructureDefinition/ErxReceipt"/>
               </link>
               <fullUrl value="urn:uuid:2c551c31-fc98-42d5-8d33-6b89b65f747a"/>
               <resource>
                  <Bundle>
                     <id value="2c551c31-fc98-42d5-8d33-6b89b65f747a"/>
                     <meta>
                        <profile value="https://gematik.de/fhir/StructureDefinition/ErxReceipt"/>
                     </meta>
                     <identifier>
                        <system value="https://gematik.de/fhir/NamingSystem/PrescriptionID"/>
                        <value value="160.000.000.000.015.12"/>
                     </identifier>
                     <type value="document"/>
                     <timestamp value="2021-07-27T09:30:00Z"/>
                     <link>
                        <relation value="self"/>
                        <url value="https://erp-ref.zentral.erp.splitdns.ti-dienste.de/Task/160.000.000.000.015.12/$close/"/>
                     </link>
                     <entry>
                        <fullUrl value="urn:uuid:b8e447c4-b16b-4258-97fe-9b71be6ade04"/>
                        <resource>
                           <Composition>
                              <id value="b8e447c4-b16b-4258-97fe-9b71be6ade04"/>
                              <meta>
                                 <profile value="https://gematik.de/fhir/StructureDefinition/ErxComposition"/>
                              </meta>
                              <extension url="https://gematik.de/fhir/StructureDefinition/BeneficiaryExtension">
                                 <valueIdentifier>
                                    <system value="https://gematik.de/fhir/NamingSystem/TelematikID"/>
                                    <value value="606358757"/>
                                 </valueIdentifier>
                              </extension>
                              <status value="final"/>
                              <type>
                                 <coding>
                                    <system value="https://gematik.de/fhir/CodeSystem/Documenttype"/>
                                    <code value="3"/>
                                    <display value="Receipt"/>
                                 </coding>
                              </type>
                              <date value="2021-07-27T09:30:00Z"/>
                              <author>
                                 <reference value="https://gematik.erppre.de:443/Device"/>
                              </author>
                              <title value="Quittung"/>
                              <event>
                                 <period>
                                    <start value="2021-07-27T08:45:00Z"/>
                                    <end value="2021-07-27T09:30:00Z"/>
                                 </period>
                              </event>
                           </Composition>
                        </resource>
                     </entry>
                     <entry>
                        <fullUrl value="https://gematik.erppre.de:443/Device"/>
                        <resource>
                           <Device>
                              <id value="1"/>
                              <meta>
                                 <profile value="https://gematik.de/fhir/StructureDefinition/ErxDevice"/>
                              </meta>
                              <status value="active"/>
                              <serialNumber value="0.3.1"/>
                              <deviceName>
                                 <name value="E-Rezept Fachdienst"/>
                                 <type value="user-friendly-name"/>
                              </deviceName>
                              <version>
                                 <value value="0.3.1"/>
                              </version>
                              <contact>
                                 <system value="email"/>
                                 <value value="betrieb@gematik.de"/>
                              </contact>
                           </Device>
                        </resource>
                     </entry>
                     <signature>
                        <type>
                           <system value="urn:iso-astm:E1762-95:2013"/>
                           <code value="1.2.840.10065.1.12.1.1"/>
                        </type>
                        <when value="2021-07-27T09:30:00Z"/>
                        <who>
                           <reference value="https://gematik.erppre.de:443/Device"/>
                        </who>
                        <sigFormat value="application/pkcs7-mime"/>
                        <data value=""/>
                     </signature>
                  </Bundle>
               </resource>
            </entry>
            <entry>
               <link>
                  <relation value="item"/>
                  <url value="http://fhir.abda.de/eRezeptAbgabedaten/StructureDefinition/DAV-PR-ERP-AbgabedatenBundle"/>
               </link>
               <fullUrl value="urn:uuid:e47dd259-1866-40be-8c7c-64f356e3fabb"/>
               <resource>
                  <Binary>
                     <id value="e47dd259-1866-40be-8c7c-64f356e3fabb"/>
                     <meta>
                        <profile value="https://gematik.de/fhir/StructureDefinition/ErxBinary"/>
                     </meta>
                     <contentType value="application/pkcs7-mime"/>
                     <data value=""/>
                  </Binary>
               </resource>
            </entry>
            <entry>
               <link>
                  <relation value="item"/>
                  <url value="https://fhir.gkvsv.de/StructureDefinition/GKVSV_PR_ERP_eAbrechnungsdaten"/>
               </link>
               <fullUrl value="urn:uuid:fd41c85d-bb0a-464d-befa-dbce6b7a15f6"/>
               <resource>
                  <Invoice>
                     <id value="fd41c85d-bb0a-464d-befa-dbce6b7a15f6"/>
                     <meta>
                        <profile value="https://fhir.gkvsv.de/StructureDefinition/GKVSV_PR_ERP_eAbrechnungsdaten|1.0.6"/>
                     </meta>
                     <extension url="https://fhir.gkvsv.de/StructureDefinition/GKVSV_EX_ERP_Irrlaeufer">
                        <valueBoolean value="false"/>
                     </extension>
                     <identifier>
                        <system value="https://gematik.de/fhir/NamingSystem/PrescriptionID"/>
                        <value value="160.000.000.000.015.12"/>
                     </identifier>
                     <identifier>
                        <system value="https://fhir.gkvsv.de/NamingSystem/GKVSV_NS_Belegnummer"/>
                        <value value="2107000000127654321"/>
                     </identifier>
                     <status value="issued"/>
                     <issuer>
                        <extension url="https://fhir.gkvsv.de/StructureDefinition/GKVSV_EX_ERP_LE_Sitz">
                           <valueCoding>
                              <system value="https://fhir.gkvsv.de/CodeSystem/GKVSV_CS_ERP_Leistungserbringer_Sitz"/>
                              <code value="1"/>
                           </valueCoding>
                        </extension>
                        <identifier>
                           <type>
                              <coding>
                                 <system value="https://fhir.gkvsv.de/CodeSystem/GKVSV_CS_ERP_Leistungserbringertyp"/>
                                 <code value="A"/>
                              </coding>
                           </type>
                           <system value="http://fhir.de/NamingSystem/arge-ik/iknr"/>
                           <value value="308412345"/>
                        </identifier>
                     </issuer>
                     <lineItem>
                        <extension url="https://fhir.gkvsv.de/StructureDefinition/GKVSV_EX_ERP_Positionstyp">
                           <valueCodeableConcept>
                              <coding>
                                 <system value="https://fhir.gkvsv.de/CodeSystem/GKVSV_CS_ERP_Positionstyp"/>
                                 <code value="1"/>
                                 <display value="übrige Position"/>
                              </coding>
                           </valueCodeableConcept>
                        </extension>
                        <extension url="https://fhir.gkvsv.de/StructureDefinition/GKVSV_EX_ERP_VAT_VALUE">
                           <valueMoney>
                              <value value="3.71"/>
                              <currency value="EUR"/>
                           </valueMoney>
                        </extension>
                        <extension url="https://fhir.gkvsv.de/StructureDefinition/GKVSV_EX_ERP_Import">
                           <valueCodeableConcept>
                              <coding>
                                 <system value="https://fhir.gkvsv.de/CodeSystem/GKVSV_CS_ERP_Import"/>
                                 <code value="0"/>
                              </coding>
                           </valueCodeableConcept>
                        </extension>
                        <sequence value="1"/>
                        <chargeItemCodeableConcept>
                           <coding>
                              <system value="http://terminology.hl7.org/CodeSystem/v3-NullFlavor"/>
                              <code value="UNC"/>
                           </coding>
                        </chargeItemCodeableConcept>
                        <priceComponent>
                           <type value="deduction"/>
                           <code>
                              <coding>
                                 <system value="https://fhir.gkvsv.de/CodeSystem/GKVSV_CS_ERP_ZuAbschlagKey"/>
                                 <code value="R001"/>
                              </coding>
                           </code>
                           <amount>
                              <value value="-1.77"/>
                              <currency value="EUR"/>
                           </amount>
                        </priceComponent>
                     </lineItem>
                  </Invoice>
               </resource>
            </entry>
         </Bundle>
      </resource>
   </entry>
</Bundle>
