<?xml version="1.0" encoding="UTF-8"?>
<Bundle xmlns="http://hl7.org/fhir">
  <id value="56137a0a-9e20-45df-a614-57d02ee94b50"/>
  <meta>
      <profile value="https://fhir.gkvsv.de/StructureDefinition/GKVSV_PR_TA7_Sammelrechnung_Bundle|1.2"/>
      <tag>
         <display value="Beispiel der TA7/eAbrechnungsdaten."/>
      </tag>
      <tag>
         <display value="ACHTUNG! Der fachlich korrekte Inhalt der Beispielinstanz kann nicht gew채hrleistet werden. Wir sind jederzeit dankbar f체r Hinweise auf Fehler oder f체r Verbesserungsvorschl채ge."/>
      </tag>
  </meta>
  <identifier>
      <extension url="https://fhir.gkvsv.de/StructureDefinition/GKVSV_EX_ERP_TA7_Dateinummer">
         <valueString value="00002"/>
      </extension>
      <system value="https://fhir.gkvsv.de/NamingSystem/GKVSV_NS_Dateiname"/>
      <value value="ARZFHR22002"/>
  </identifier>
  <type value="document"/>
  <timestamp value="2022-07-02T10:00:00Z"/>
  <entry>
      <fullUrl value="urn:uuid:c7397e6b-1590-4731-a183-d060ef67e397"/>
      <resource>
         <Composition>
            <id value="c7397e6b-1590-4731-a183-d060ef67e397"/>
            <meta>
               <profile value="https://fhir.gkvsv.de/StructureDefinition/GKVSV_PR_TA7_Sammelrechnung_Composition|1.2"/>
            </meta>
            <extension url="https://fhir.gkvsv.de/StructureDefinition/GKVSV_EX_TA7_IK_Empfaenger">
               <valueIdentifier>
                  <system value="http://fhir.de/NamingSystem/arge-ik/iknr"/>
                  <value value="104212516"/>
               </valueIdentifier>
            </extension>
            <extension url="https://fhir.gkvsv.de/StructureDefinition/GKVSV_EX_TA7_IK_Kostentraeger">
               <valueIdentifier>
                  <system value="http://fhir.de/NamingSystem/arge-ik/iknr"/>
                  <value value="104212505"/>
               </valueIdentifier>
            </extension>
            <status value="final"/>
            <type>
               <coding>
                  <system value="https://fhir.gkvsv.de/CodeSystem/GKVSV_CS_ERP_TA7"/>
                  <code value="SR"/>
                  <display value="Sammelrechnung"/>
               </coding>
            </type>
            <date value="2022-07-31"/>
            <author>
               <identifier>
                  <system value="http://fhir.de/NamingSystem/arge-ik/iknr"/>
                  <value value="308400023"/>
               </identifier>
            </author>
            <title value="elektronische Sammelrechnung"/>
            <section>
               <code>
                  <coding>
                     <system value="https://fhir.gkvsv.de/CodeSystem/GKVSV_CS_ERP_TA7"/>
                     <code value="LSR"/>
                     <display value="Liste der Sammelrechnungen"/>
                  </coding>
               </code>
               <entry>
                  <reference value="urn:uuid:b6c3602f-35ce-453d-9f6f-79455c3edd75"/>
               </entry>
            </section>
            <section>
               <code>
                  <coding>
                     <system value="https://fhir.gkvsv.de/CodeSystem/GKVSV_CS_ERP_TA7"/>
                     <code value="R"/>
                     <display value="Rechnungen"/>
                  </coding>
               </code>
               <entry>
                  <reference value="urn:uuid:cca9ed09-0cf2-452b-8259-67837561b41b"/>
               </entry>
            </section>
         </Composition>
      </resource>
  </entry>
  <entry>
      <fullUrl value="urn:uuid:b6c3602f-35ce-453d-9f6f-79455c3edd75"/>
      <resource>
         <List>
            <id value="b6c3602f-35ce-453d-9f6f-79455c3edd75"/>
            <meta>
               <profile value="https://fhir.gkvsv.de/StructureDefinition/GKVSV_PR_TA7_Sammelrechnung_List|1.2"/>
            </meta>
            <status value="current"/>
            <mode value="working"/>
            <entry>
               <item>
                  <reference value="Bundle/56137a0a-9e20-45df-a614-57d02ee94b50"/>
               </item>
            </entry>
         </List>
      </resource>
  </entry>
  <entry>
      <fullUrl value="urn:uuid:cca9ed09-0cf2-452b-8259-67837561b41b"/>
      <resource>
         <Invoice>
            <id value="cca9ed09-0cf2-452b-8259-67837561b41b"/>
            <meta>
               <profile value="https://fhir.gkvsv.de/StructureDefinition/GKVSV_PR_TA7_Rechnung|1.2"/>
            </meta>
            <extension url="https://fhir.gkvsv.de/StructureDefinition/GKVSV_EX_ERP_TA7_Abrechnungszeitraum">
               <valueDateTime value="2022-07-31"/>
            </extension>
            <extension url="https://fhir.gkvsv.de/StructureDefinition/GKVSV_EX_ERP_RezeptBundleReferenz">
               <extension url="lineItem">
                  <valueReference>
                     <reference value="urn:uuid:71458fc1-81de-410e-a4a2-15f4f8e80093"/>
                  </valueReference>
               </extension>
            </extension>
            <identifier>
               <system value="https://fhir.gkvsv.de/NamingSystem/GKVSV_NS_Sammelrechnungsnummer"/>
               <value value="104212506-01-020722"/>
            </identifier>
            <status value="issued"/>
            <type>
               <coding>
                  <system value="https://fhir.gkvsv.de/CodeSystem/GKVSV_CS_ERP_Rechnungsart"/>
                  <code value="6"/>
               </coding>
            </type>
            <recipient>
               <identifier>
                  <system value="http://fhir.de/NamingSystem/arge-ik/iknr"/>
                  <value value="104212505"/>
               </identifier>
            </recipient>
            <date value="2022-07-02"/>
         </Invoice>
      </resource>
  </entry>
  <entry>
      <fullUrl value="urn:uuid:71458fc1-81de-410e-a4a2-15f4f8e80093"/>
      <resource>
         <Bundle>
            <id value="71458fc1-81de-410e-a4a2-15f4f8e80093"/>
            <meta>
               <profile value="https://fhir.gkvsv.de/StructureDefinition/GKVSV_PR_TA7_RezeptBundle|1.2"/>
            </meta>
            <type value="collection"/>
            <entry>
               <link>
                  <relation value="item"/>
                  <url value="https://fhir.kbv.de/StructureDefinition/KBV_PR_ERP_Bundle"/>
               </link>
               <fullUrl value="urn:uuid:7fb72c19-0fdb-4480-8ff1-9a9f2c0bbf7d"/>
               <resource>
                  <Binary>
                     <id value="7fb72c19-0fdb-4480-8ff1-9a9f2c0bbf7d"/>
                     <meta>
                        <profile value="https://gematik.de/fhir/StructureDefinition/ErxBinary"/>
                     </meta>
                     <contentType value="application/pkcs7-mime"/>
                     <data value=""/>
                  </Binary>
               </resource>
            </entry>
            <entry>
               <link>
                  <relation value="item"/>
                  <url value="https://gematik.de/fhir/StructureDefinition/ErxReceipt"/>
               </link>
               <fullUrl value="urn:uuid:3671f82f-a795-4149-b51e-7c7f6af414e9"/>
               <resource>
                  <Binary>
                     <id value="3671f82f-a795-4149-b51e-7c7f6af414e9"/>
                     <meta>
                        <profile value="https://gematik.de/fhir/StructureDefinition/ErxBinary"/>
                     </meta>
                     <contentType value="application/pkcs7-mime"/>
                     <data value=""/>
                  </Binary>
               </resource>
            </entry>
            <entry>
               <link>
                  <relation value="item"/>
                  <url value="http://fhir.abda.de/eRezeptAbgabedaten/StructureDefinition/DAV-PR-ERP-AbgabedatenBundle"/>
               </link>
               <fullUrl value="urn:uuid:6b8ff157-c171-4554-9bdc-6dcd400bff0b"/>
               <resource>
                  <Binary>
                     <id value="6b8ff157-c171-4554-9bdc-6dcd400bff0b"/>
                     <meta>
                        <profile value="https://gematik.de/fhir/StructureDefinition/ErxBinary"/>
                     </meta>
                     <contentType value="application/pkcs7-mime"/>
                     <data value=""/>
                  </Binary>
               </resource>
            </entry>
            <entry>
               <link>
                  <relation value="item"/>
                  <url value="https://fhir.gkvsv.de/StructureDefinition/GKVSV_PR_ERP_eAbrechnungsdaten"/>
               </link>
               <fullUrl value="urn:uuid:2d747338-254e-40c8-ac47-b2172ba13d0e"/>
               <resource>
                  <Invoice>
                     <id value="2d747338-254e-40c8-ac47-b2172ba13d0e"/>
                     <meta>
                        <profile value="https://fhir.gkvsv.de/StructureDefinition/GKVSV_PR_ERP_eAbrechnungsdaten|1.2"/>
                     </meta>
                     <extension url="https://fhir.gkvsv.de/StructureDefinition/GKVSV_EX_ERP_Irrlaeufer">
                        <valueBoolean value="false"/>
                     </extension>
                     <identifier>
                        <system value="https://gematik.de/fhir/NamingSystem/PrescriptionID"/>
                        <value value="160.000.000.000.005.42"/>
                     </identifier>
                     <identifier>
                        <system value="https://fhir.gkvsv.de/NamingSystem/GKVSV_NS_Belegnummer"/>
                        <value value="2207000000018400023"/>
                     </identifier>
                     <status value="issued"/>
                     <issuer>
                        <extension url="https://fhir.gkvsv.de/StructureDefinition/GKVSV_EX_ERP_LE_Sitz">
                           <valueCoding>
                              <system value="https://fhir.gkvsv.de/CodeSystem/GKVSV_CS_ERP_Leistungserbringer_Sitz"/>
                              <code value="1"/>
                           </valueCoding>
                        </extension>
                        <identifier>
                           <type>
                              <coding>
                                 <system value="https://fhir.gkvsv.de/CodeSystem/GKVSV_CS_ERP_Leistungserbringertyp"/>
                                 <code value="A"/>
                              </coding>
                           </type>
                           <system value="http://fhir.de/NamingSystem/arge-ik/iknr"/>
                           <value value="308412345"/>
                        </identifier>
                     </issuer>
                     <lineItem>
                        <extension url="https://fhir.gkvsv.de/StructureDefinition/GKVSV_EX_ERP_Positionstyp">
                           <valueCodeableConcept>
                              <coding>
                                 <system value="https://fhir.gkvsv.de/CodeSystem/GKVSV_CS_ERP_Positionstyp"/>
                                 <code value="1"/>
                                 <display value="체brige Position"/>
                              </coding>
                           </valueCodeableConcept>
                        </extension>
                        <extension url="https://fhir.gkvsv.de/StructureDefinition/GKVSV_EX_ERP_VAT_VALUE">
                           <valueMoney>
                              <value value="16.71"/>
                              <currency value="EUR"/>
                           </valueMoney>
                        </extension>
                        <extension url="https://fhir.gkvsv.de/StructureDefinition/GKVSV_EX_ERP_Import">
                           <valueCodeableConcept>
                              <coding>
                                 <system value="https://fhir.gkvsv.de/CodeSystem/GKVSV_CS_ERP_Import"/>
                                 <code value="0"/>
                              </coding>
                           </valueCodeableConcept>
                        </extension>
                        <sequence value="1"/>
                        <chargeItemCodeableConcept>
                           <coding>
                              <system value="http://terminology.hl7.org/CodeSystem/v3-NullFlavor"/>
                              <code value="UNC"/>
                           </coding>
                        </chargeItemCodeableConcept>
                        <priceComponent>
                           <type value="deduction"/>
                           <code>
                              <coding>
                                 <system value="https://fhir.gkvsv.de/CodeSystem/GKVSV_CS_ERP_ZuAbschlagKey"/>
                                 <code value="R001"/>
                              </coding>
                           </code>
                           <amount>
                              <value value="-1.77"/>
                              <currency value="EUR"/>
                           </amount>
                        </priceComponent>
                     </lineItem>
                  </Invoice>
               </resource>
            </entry>
         </Bundle>
      </resource>
  </entry>
</Bundle>
