<Bundle xmlns="http://hl7.org/fhir">
   <id value="9db6b241-10f5-4600-b87e-ad61fd297813"></id>
   <meta>
      <profile value="https://fhir.gkvsv.de/StructureDefinition/GKVSV_PR_TA7_Sammelrechnung_Bundle|1.0.4"></profile>
      <tag>
         <display value="Beispiel der TA7/eAbrechnungsdaten." />
      </tag>
      <tag>
         <display value="ACHTUNG! Der fachlich korrekte Inhalt der Beispielinstanz kann nicht gew채hrleistet werden. Wir sind jederzeit dankbar f체r Hinweise auf Fehler oder f체r Verbesserungsvorschl채ge." />
      </tag>
   </meta>
   <identifier>
      <extension url="https://fhir.gkvsv.de/StructureDefinition/GKVSV_EX_ERP_TA7_Dateinummer">
         <valueString value="00081"></valueString>
      </extension>
      <system value="https://fhir.gkvsv.de/NamingSystem/GKVSV_NS_Dateiname"></system>
      <value value="ARZFHR21081"></value>
   </identifier>
   <type value="document"></type>
   <timestamp value="2021-06-10T10:00:00Z"></timestamp>
   <entry>
      <fullUrl value="urn:uuid:de82bbb4-48ef-45ab-af8f-e802fec3bf74"></fullUrl>
      <resource>
         <Composition xmlns="http://hl7.org/fhir">
            <id value="de82bbb4-48ef-45ab-af8f-e802fec3bf74"></id>
            <meta>
               <profile value="https://fhir.gkvsv.de/StructureDefinition/GKVSV_PR_TA7_Sammelrechnung_Composition|1.0.4"></profile>
            </meta>
            <extension url="https://fhir.gkvsv.de/StructureDefinition/GKVSV_EX_TA7_IK_Empfaenger">
               <valueIdentifier>
                  <system value="http://fhir.de/NamingSystem/arge-ik/iknr"></system>
                  <value value="108018007"></value>
               </valueIdentifier>
            </extension>
            <extension url="https://fhir.gkvsv.de/StructureDefinition/GKVSV_EX_TA7_IK_Kostentraeger">
               <valueIdentifier>
                  <system value="http://fhir.de/NamingSystem/arge-ik/iknr"></system>
                  <value value="108018132"></value>
               </valueIdentifier>
            </extension>
            <status value="final"></status>
            <type>
               <coding>
                  <system value="https://fhir.gkvsv.de/CodeSystem/GKVSV_CS_ERP_TA7"></system>
                  <code value="SR"></code>
                  <display value="Sammelrechnung"></display>
               </coding>
            </type>
            <date value="2021-05-31"></date>
            <author>
               <identifier>
                  <system value="http://fhir.de/NamingSystem/arge-ik/iknr"></system>
                  <value value="987654321"></value>
               </identifier>
            </author>
            <title value="elektronische Sammelrechnung"></title>
            <section>
               <code>
                  <coding>
                     <system value="https://fhir.gkvsv.de/CodeSystem/GKVSV_CS_ERP_TA7"></system>
                     <code value="LSR"></code>
                     <display value="Liste der Sammelrechnungen"></display>
                  </coding>
               </code>
               <entry>
                  <reference value="urn:uuid:fd314239-5646-4ed5-bb33-9406af8224c1"></reference>
               </entry>
            </section>
            <section>
               <code>
                  <coding>
                     <system value="https://fhir.gkvsv.de/CodeSystem/GKVSV_CS_ERP_TA7"></system>
                     <code value="R"></code>
                     <display value="Rechnungen"></display>
                  </coding>
               </code>
               <entry>
                  <reference value="urn:uuid:3dbd3ac2-0f0c-416d-9aae-ba53e5a91187"></reference>
               </entry>
            </section>
         </Composition>
      </resource>
   </entry>
   <entry>
      <fullUrl value="urn:uuid:fd314239-5646-4ed5-bb33-9406af8224c1"></fullUrl>
      <resource>
         <List xmlns="http://hl7.org/fhir">
            <id value="fd314239-5646-4ed5-bb33-9406af8224c1"></id>
            <meta>
               <profile value="https://fhir.gkvsv.de/StructureDefinition/GKVSV_PR_TA7_Sammelrechnung_List|1.0.4"></profile>
            </meta>
            <status value="current"></status>
            <mode value="working"></mode>
            <entry>
               <item>
                  <reference value="Bundle/9db6b241-10f5-4600-b87e-ad61fd297813"></reference>
               </item>
            </entry>
         </List>
      </resource>
   </entry>
   <entry>
      <fullUrl value="urn:uuid:3dbd3ac2-0f0c-416d-9aae-ba53e5a91187"></fullUrl>
      <resource>
         <Invoice xmlns="http://hl7.org/fhir">
            <id value="3dbd3ac2-0f0c-416d-9aae-ba53e5a91187"></id>
            <meta>
               <profile value="https://fhir.gkvsv.de/StructureDefinition/GKVSV_PR_TA7_Rechnung|1.0.4"></profile>
            </meta>
            <extension url="https://fhir.gkvsv.de/StructureDefinition/GKVSV_EX_ERP_TA7_Abrechnungszeitraum">
               <valueDateTime value="2021-05-31"></valueDateTime>
            </extension>
            <extension url="https://fhir.gkvsv.de/StructureDefinition/GKVSV_EX_ERP_RezeptBundleReferenz">
               <extension url="lineItem">
                  <valueReference>
                     <reference value="urn:uuid:ccaeb11a-a0c5-4ead-86fe-ec784ccdf99c"></reference>
                  </valueReference>
               </extension>
            </extension>
            <identifier>
               <system value="https://fhir.gkvsv.de/NamingSystem/GKVSV_NS_Sammelrechnungsnummer"></system>
               <value value="108018347-05-100621"></value>
            </identifier>
            <status value="issued"></status>
            <type>
               <coding>
                  <system value="https://fhir.gkvsv.de/CodeSystem/GKVSV_CS_ERP_Rechnungsart"></system>
                  <code value="6"></code>
               </coding>
            </type>
            <recipient>
               <identifier>
                  <system value="http://fhir.de/NamingSystem/arge-ik/iknr"></system>
                  <value value="108018132"></value>
               </identifier>
            </recipient>
            <date value="2021-06-10"></date>
         </Invoice>
      </resource>
   </entry>
   <entry>
      <fullUrl value="urn:uuid:ccaeb11a-a0c5-4ead-86fe-ec784ccdf99c"></fullUrl>
      <resource>
         <Bundle xmlns="http://hl7.org/fhir">
            <id value="ccaeb11a-a0c5-4ead-86fe-ec784ccdf99c"></id>
            <meta>
               <profile value="https://fhir.gkvsv.de/StructureDefinition/GKVSV_PR_TA7_RezeptBundle|1.0.4"></profile>
            </meta>
            <type value="collection"></type>
            <entry>
               <link>
                  <relation value="item"></relation>
                  <url value="https://fhir.kbv.de/StructureDefinition/KBV_PR_ERP_Bundle"></url>
               </link>
               <fullUrl value="urn:uuid:a95bfd9d-de6d-4569-bf3a-4bf9079c12ba"></fullUrl>
               <resource>
                  <Binary xmlns="http://hl7.org/fhir">
                     <id value="a95bfd9d-de6d-4569-bf3a-4bf9079c12ba"></id>
                     <meta>
                        <profile value="https://gematik.de/fhir/StructureDefinition/ErxBinary"></profile>
                     </meta>
                     <contentType value="application/pkcs7-mime"></contentType>
                     <data value=""></data>
                  </Binary>
               </resource>
            </entry>
            <entry>
               <link>
                  <relation value="item"></relation>
                  <url value="https://gematik.de/fhir/StructureDefinition/ErxReceipt"></url>
               </link>
               <fullUrl value="urn:uuid:876c3052-d0d9-4dd3-96d3-f8714239306a"></fullUrl>
               <resource>
                  <Bundle xmlns="http://hl7.org/fhir">
                     <id value="876c3052-d0d9-4dd3-96d3-f8714239306a"></id>
                     <meta>
                        <profile value="https://gematik.de/fhir/StructureDefinition/ErxReceipt"></profile>
                     </meta>
                     <identifier>
                        <system value="https://gematik.de/fhir/NamingSystem/PrescriptionID"></system>
                        <value value="160.100.000.000.024.67"></value>
                     </identifier>
                     <type value="document"></type>
                     <timestamp value="2021-05-27T09:30:00Z"></timestamp>
                     <link>
                        <relation value="self"></relation>
                        <url value="https://gematik.erppre.de:443/Task/160.100.000.000.024.67/$close"></url>
                     </link>
                     <entry>
                        <fullUrl value="urn:uuid:22e57d75-b7fe-4bd7-9101-42c4d2473cb5"></fullUrl>
                        <resource>
                           <Composition xmlns="http://hl7.org/fhir">
                              <id value="22e57d75-b7fe-4bd7-9101-42c4d2473cb5"></id>
                              <meta>
                                 <profile value="https://gematik.de/fhir/StructureDefinition/ErxComposition"></profile>
                              </meta>
                              <extension url="https://gematik.de/fhir/StructureDefinition/BeneficiaryExtension">
                                 <valueIdentifier>
                                    <system value="https://gematik.de/fhir/NamingSystem/TelematikID"></system>
                                    <value value="606358757"></value>
                                 </valueIdentifier>
                              </extension>
                              <status value="final"></status>
                              <type>
                                 <coding>
                                    <system value="https://gematik.de/fhir/CodeSystem/Documenttype"></system>
                                    <code value="3"></code>
                                    <display value="Receipt"></display>
                                 </coding>
                              </type>
                              <date value="2021-05-27T09:30:00Z"></date>
                              <author>
                                 <reference value="https://gematik.erppre.de:443/Device"></reference>
                              </author>
                              <title value="Quittung"></title>
                              <event>
                                 <period>
                                    <start value="2021-05-27T08:45:00Z"></start>
                                    <end value="2021-05-27T09:30:00Z"></end>
                                 </period>
                              </event>
                           </Composition>
                        </resource>
                     </entry>
                     <entry>
                        <fullUrl value="https://gematik.erppre.de:443/Device"></fullUrl>
                        <resource>
                           <Device xmlns="http://hl7.org/fhir">
                              <id value="1"></id>
                              <meta>
                                 <profile value="https://gematik.de/fhir/StructureDefinition/ErxDevice"></profile>
                              </meta>
                              <status value="active"></status>
                              <serialNumber value="0.3.1"></serialNumber>
                              <deviceName>
                                 <name value="E-Rezept Fachdienst"></name>
                                 <type value="user-friendly-name"></type>
                              </deviceName>
                              <version>
                                 <value value="0.3.1"></value>
                              </version>
                              <contact>
                                 <system value="email"></system>
                                 <value value="betrieb@gematik.de"></value>
                              </contact>
                           </Device>
                        </resource>
                     </entry>
                     <signature>
                        <type>
                           <system value="urn:iso-astm:E1762-95:2013"></system>
                           <code value="1.2.840.10065.1.12.1.1"></code>
                        </type>
                        <when value="2021-05-27T09:30:00Z"></when>
                        <who>
                           <reference value="https://gematik.erppre.de:443/Device"></reference>
                        </who>
                        <sigFormat value="application/pkcs7-mime"></sigFormat>
                        <data value=""></data>
                     </signature>
                  </Bundle>
               </resource>
            </entry>
            <entry>
               <link>
                  <relation value="item"></relation>
                  <url value="http://fhir.abda.de/eRezeptAbgabedaten/StructureDefinition/DAV-PR-ERP-AbgabedatenBundle"></url>
               </link>
               <fullUrl value="urn:uuid:08dabea3-77af-4225-922d-ca2d910cbc54"></fullUrl>
               <resource>
                  <Binary xmlns="http://hl7.org/fhir">
                     <id value="08dabea3-77af-4225-922d-ca2d910cbc54"></id>
                     <meta>
                        <profile value="https://gematik.de/fhir/StructureDefinition/ErxBinary"></profile>
                     </meta>
                     <contentType value="application/pkcs7-mime"></contentType>
                     <data value=""></data>
                  </Binary>
               </resource>
            </entry>
            <entry>
               <link>
                  <relation value="item"></relation>
                  <url value="https://fhir.gkvsv.de/StructureDefinition/GKVSV_PR_ERP_eAbrechnungsdaten"></url>
               </link>
               <fullUrl value="urn:uuid:2aeba634-9e92-41ea-b198-6522b06c781b"></fullUrl>
               <resource>
                  <Invoice xmlns="http://hl7.org/fhir">
                     <id value="2aeba634-9e92-41ea-b198-6522b06c781b"></id>
                     <meta>
                        <profile value="https://fhir.gkvsv.de/StructureDefinition/GKVSV_PR_ERP_eAbrechnungsdaten|1.0.4"></profile>
                     </meta>
                     <extension url="https://fhir.gkvsv.de/StructureDefinition/GKVSV_EX_ERP_Irrlaeufer">
                        <valueBoolean value="false"></valueBoolean>
                     </extension>
                     <identifier>
                        <system value="https://gematik.de/fhir/NamingSystem/PrescriptionID"></system>
                        <value value="160.100.000.000.024.67"></value>
                     </identifier>
                     <identifier>
                        <system value="https://fhir.gkvsv.de/NamingSystem/GKVSV_NS_Belegnummer"></system>
                        <value value="2105000008134560000"></value>
                     </identifier>
                     <status value="issued"></status>
                     <issuer>
                        <extension url="https://fhir.gkvsv.de/StructureDefinition/GKVSV_EX_ERP_LE_Sitz">
                           <valueCoding>
                              <system value="https://fhir.gkvsv.de/CodeSystem/GKVSV_CS_ERP_Leistungserbringer_Sitz"></system>
                              <code value="1"></code>
                           </valueCoding>
                        </extension>
                        <identifier>
                           <type>
                              <coding>
                                 <system value="https://fhir.gkvsv.de/CodeSystem/GKVSV_CS_ERP_Leistungserbringertyp"></system>
                                 <code value="A"></code>
                              </coding>
                           </type>
                           <system value="http://fhir.de/NamingSystem/arge-ik/iknr"></system>
                           <value value="123456789"></value>
                        </identifier>
                     </issuer>
                     <lineItem>
                        <extension url="https://fhir.gkvsv.de/StructureDefinition/GKVSV_EX_ERP_Positionstyp">
                           <valueCodeableConcept>
                              <coding>
                                 <system value="https://fhir.gkvsv.de/CodeSystem/GKVSV_CS_ERP_Positionstyp"></system>
                                 <code value="1"></code>
                                 <display value="체brige Position"></display>
                              </coding>
                           </valueCodeableConcept>
                        </extension>
                        <extension url="https://fhir.gkvsv.de/StructureDefinition/GKVSV_EX_ERP_VAT_VALUE">
                           <valueMoney>
                              <value value="2.94"></value>
                              <currency value="EUR"></currency>
                           </valueMoney>
                        </extension>
                        <extension url="https://fhir.gkvsv.de/StructureDefinition/GKVSV_EX_ERP_Import">
                           <valueCodeableConcept>
                              <coding>
                                 <system value="https://fhir.gkvsv.de/CodeSystem/GKVSV_CS_ERP_Import"></system>
                                 <code value="0"></code>
                              </coding>
                           </valueCodeableConcept>
                        </extension>
                        <sequence value="1"></sequence>
                        <chargeItemCodeableConcept>
                           <coding>
                              <system value="http://terminology.hl7.org/CodeSystem/v3-NullFlavor"></system>
                              <code value="UNC"></code>
                           </coding>
                        </chargeItemCodeableConcept>
                        <priceComponent>
                           <type value="deduction"></type>
                           <code>
                              <coding>
                                 <system value="https://fhir.gkvsv.de/CodeSystem/GKVSV_CS_ERP_ZuAbschlagKey"></system>
                                 <code value="R001"></code>
                              </coding>
                           </code>
                           <amount>
                              <value value="-1.77"></value>
                              <currency value="EUR"></currency>
                           </amount>
                        </priceComponent>
                     </lineItem>
                  </Invoice>
               </resource>
            </entry>
         </Bundle>
      </resource>
   </entry>
</Bundle>