<Bundle xmlns="http://hl7.org/fhir">
   <id value="ff8fe79e-2d23-4d4d-8e5b-9c097b59f187"></id>
   <meta>
      <profile value="https://fhir.gkvsv.de/StructureDefinition/GKVSV_PR_TA7_Sammelrechnung_Bundle|1.1.0"></profile>
      <tag>
         <display value="Beispiel der TA7/eAbrechnungsdaten."></display>
      </tag>
      <tag>
         <display value="ACHTUNG! Der fachlich korrekte Inhalt der Beispielinstanz kann nicht gew채hrleistet werden. Wir sind jederzeit dankbar f체r Hinweise auf Fehler oder f체r Verbesserungsvorschl채ge."></display>
      </tag>
   </meta>
   <identifier>
      <extension url="https://fhir.gkvsv.de/StructureDefinition/GKVSV_EX_ERP_TA7_Dateinummer">
         <valueString value="00061"></valueString>
      </extension>
      <system value="https://fhir.gkvsv.de/NamingSystem/GKVSV_NS_Dateiname"></system>
      <value value="ARZFHR21061"></value>
   </identifier>
   <type value="document"></type>
   <timestamp value="2021-06-10T10:00:00Z"></timestamp>
   <entry>
      <fullUrl value="urn:uuid:c72563e0-c727-4102-a806-1a0cbedcf239"></fullUrl>
      <resource>
         <Composition xmlns="http://hl7.org/fhir">
            <id value="c72563e0-c727-4102-a806-1a0cbedcf239"></id>
            <meta>
               <profile value="https://fhir.gkvsv.de/StructureDefinition/GKVSV_PR_TA7_Sammelrechnung_Composition|1.1.0"></profile>
            </meta>
            <extension url="https://fhir.gkvsv.de/StructureDefinition/GKVSV_EX_TA7_IK_Empfaenger">
               <valueIdentifier>
                  <system value="http://fhir.de/NamingSystem/arge-ik/iknr"></system>
                  <value value="107436557"></value>
               </valueIdentifier>
            </extension>
            <extension url="https://fhir.gkvsv.de/StructureDefinition/GKVSV_EX_TA7_IK_Kostentraeger">
               <valueIdentifier>
                  <system value="http://fhir.de/NamingSystem/arge-ik/iknr"></system>
                  <value value="121191241"></value>
               </valueIdentifier>
            </extension>
            <status value="final"></status>
            <type>
               <coding>
                  <system value="https://fhir.gkvsv.de/CodeSystem/GKVSV_CS_ERP_TA7"></system>
                  <code value="SR"></code>
                  <display value="Sammelrechnung"></display>
               </coding>
            </type>
            <date value="2021-05-31"></date>
            <author>
               <identifier>
                  <system value="http://fhir.de/NamingSystem/arge-ik/iknr"></system>
                  <value value="987654321"></value>
               </identifier>
            </author>
            <title value="elektronische Sammelrechnung"></title>
            <section>
               <code>
                  <coding>
                     <system value="https://fhir.gkvsv.de/CodeSystem/GKVSV_CS_ERP_TA7"></system>
                     <code value="LSR"></code>
                     <display value="Liste der Sammelrechnungen"></display>
                  </coding>
               </code>
               <entry>
                  <reference value="urn:uuid:234822d1-50e1-417c-8cbf-4a825ece5b5a"></reference>
               </entry>
            </section>
            <section>
               <code>
                  <coding>
                     <system value="https://fhir.gkvsv.de/CodeSystem/GKVSV_CS_ERP_TA7"></system>
                     <code value="R"></code>
                     <display value="Rechnungen"></display>
                  </coding>
               </code>
               <entry>
                  <reference value="urn:uuid:7fce8e8e-8189-4967-b9fe-8dabd1e7576f"></reference>
               </entry>
            </section>
         </Composition>
      </resource>
   </entry>
   <entry>
      <fullUrl value="urn:uuid:234822d1-50e1-417c-8cbf-4a825ece5b5a"></fullUrl>
      <resource>
         <List xmlns="http://hl7.org/fhir">
            <id value="234822d1-50e1-417c-8cbf-4a825ece5b5a"></id>
            <meta>
               <profile value="https://fhir.gkvsv.de/StructureDefinition/GKVSV_PR_TA7_Sammelrechnung_List|1.1.0"></profile>
            </meta>
            <status value="current"></status>
            <mode value="working"></mode>
            <entry>
               <item>
                  <reference value="Bundle/ff8fe79e-2d23-4d4d-8e5b-9c097b59f187"></reference>
               </item>
            </entry>
         </List>
      </resource>
   </entry>
   <entry>
      <fullUrl value="urn:uuid:7fce8e8e-8189-4967-b9fe-8dabd1e7576f"></fullUrl>
      <resource>
         <Invoice xmlns="http://hl7.org/fhir">
            <id value="7fce8e8e-8189-4967-b9fe-8dabd1e7576f"></id>
            <meta>
               <profile value="https://fhir.gkvsv.de/StructureDefinition/GKVSV_PR_TA7_Rechnung|1.1.0"></profile>
            </meta>
            <extension url="https://fhir.gkvsv.de/StructureDefinition/GKVSV_EX_ERP_TA7_Abrechnungszeitraum">
               <valueDateTime value="2021-05-31"></valueDateTime>
            </extension>
            <extension url="https://fhir.gkvsv.de/StructureDefinition/GKVSV_EX_ERP_RezeptBundleReferenz">
               <extension url="lineItem">
                  <valueReference>
                     <reference value="urn:uuid:4d521ac4-089f-4eb8-af62-089184ae3517"></reference>
                  </valueReference>
               </extension>
            </extension>
            <identifier>
               <system value="https://fhir.gkvsv.de/NamingSystem/GKVSV_NS_Sammelrechnungsnummer"></system>
               <value value="121191241-05-100621"></value>
            </identifier>
            <status value="issued"></status>
            <type>
               <coding>
                  <system value="https://fhir.gkvsv.de/CodeSystem/GKVSV_CS_ERP_Rechnungsart"></system>
                  <code value="6"></code>
               </coding>
            </type>
            <recipient>
               <identifier>
                  <system value="http://fhir.de/NamingSystem/arge-ik/iknr"></system>
                  <value value="121191241"></value>
               </identifier>
            </recipient>
            <date value="2021-06-10"></date>
         </Invoice>
      </resource>
   </entry>
   <entry>
      <fullUrl value="urn:uuid:4d521ac4-089f-4eb8-af62-089184ae3517"></fullUrl>
      <resource>
         <Bundle xmlns="http://hl7.org/fhir">
            <id value="4d521ac4-089f-4eb8-af62-089184ae3517"></id>
            <meta>
               <profile value="https://fhir.gkvsv.de/StructureDefinition/GKVSV_PR_TA7_RezeptBundle|1.1.0"></profile>
            </meta>
            <type value="collection"></type>
            <entry>
               <link>
                  <relation value="item"></relation>
                  <url value="https://fhir.kbv.de/StructureDefinition/KBV_PR_ERP_Bundle"></url>
               </link>
               <fullUrl value="urn:uuid:b90df913-2c11-40d1-b030-ba9b8952c5c9"></fullUrl>
               <resource>
                  <Binary xmlns="http://hl7.org/fhir">
                     <id value="b90df913-2c11-40d1-b030-ba9b8952c5c9"></id>
                     <meta>
                        <profile value="https://gematik.de/fhir/StructureDefinition/ErxBinary"></profile>
                     </meta>
                     <contentType value="application/pkcs7-mime"></contentType>
                     <data value=""></data>
                  </Binary>
               </resource>
            </entry>
            <entry>
               <link>
                  <relation value="item"></relation>
                  <url value="https://gematik.de/fhir/StructureDefinition/ErxReceipt"></url>
               </link>
               <fullUrl value="urn:uuid:35ea5ddd-796d-4a30-9b0e-91adf593e688"></fullUrl>
               <resource>
                  <Binary xmlns="http://hl7.org/fhir">
                     <id value="35ea5ddd-796d-4a30-9b0e-91adf593e688"></id>
                     <meta>
                        <profile value="https://gematik.de/fhir/StructureDefinition/ErxBinary"></profile>
                     </meta>
                     <contentType value="application/pkcs7-mime"></contentType>
                     <data value=""></data>
                  </Binary>
               </resource>
            </entry>
            <entry>
               <link>
                  <relation value="item"></relation>
                  <url value="http://fhir.abda.de/eRezeptAbgabedaten/StructureDefinition/DAV-PR-ERP-AbgabedatenBundle"></url>
               </link>
               <fullUrl value="urn:uuid:1e687ede-6b80-4bc4-93c7-a831194ccb66"></fullUrl>
               <resource>
                  <Binary xmlns="http://hl7.org/fhir">
                     <id value="1e687ede-6b80-4bc4-93c7-a831194ccb66"></id>
                     <meta>
                        <profile value="https://gematik.de/fhir/StructureDefinition/ErxBinary"></profile>
                     </meta>
                     <contentType value="application/pkcs7-mime"></contentType>
                     <data value=""></data>
                  </Binary>
               </resource>
            </entry>
            <entry>
               <link>
                  <relation value="item"></relation>
                  <url value="https://fhir.gkvsv.de/StructureDefinition/GKVSV_PR_ERP_eAbrechnungsdaten"></url>
               </link>
               <fullUrl value="urn:uuid:034a0ded-cd92-4597-aeaa-d6082742eafd"></fullUrl>
               <resource>
                  <Invoice xmlns="http://hl7.org/fhir">
                     <id value="034a0ded-cd92-4597-aeaa-d6082742eafd"></id>
                     <meta>
                        <profile value="https://fhir.gkvsv.de/StructureDefinition/GKVSV_PR_ERP_eAbrechnungsdaten|1.1.0"></profile>
                     </meta>
                     <extension url="https://fhir.gkvsv.de/StructureDefinition/GKVSV_EX_ERP_Irrlaeufer">
                        <valueBoolean value="false"></valueBoolean>
                     </extension>
                     <identifier>
                        <system value="https://gematik.de/fhir/NamingSystem/PrescriptionID"></system>
                        <value value="160.000.000.000.029.67"></value>
                     </identifier>
                     <identifier>
                        <system value="https://fhir.gkvsv.de/NamingSystem/GKVSV_NS_Belegnummer"></system>
                        <value value="2105000000257654321"></value>
                     </identifier>
                     <status value="issued"></status>
                     <issuer>
                        <extension url="https://fhir.gkvsv.de/StructureDefinition/GKVSV_EX_ERP_LE_Sitz">
                           <valueCoding>
                              <system value="https://fhir.gkvsv.de/CodeSystem/GKVSV_CS_ERP_Leistungserbringer_Sitz"></system>
                              <code value="1"></code>
                           </valueCoding>
                        </extension>
                        <identifier>
                           <type>
                              <coding>
                                 <system value="https://fhir.gkvsv.de/CodeSystem/GKVSV_CS_ERP_Leistungserbringertyp"></system>
                                 <code value="A"></code>
                              </coding>
                           </type>
                           <system value="http://fhir.de/NamingSystem/arge-ik/iknr"></system>
                           <value value="308412345"></value>
                        </identifier>
                     </issuer>
                     <lineItem>
                        <extension url="https://fhir.gkvsv.de/StructureDefinition/GKVSV_EX_ERP_Positionstyp">
                           <valueCodeableConcept>
                              <coding>
                                 <system value="https://fhir.gkvsv.de/CodeSystem/GKVSV_CS_ERP_Positionstyp"></system>
                                 <code value="1"></code>
                                 <display value="체brige Position"></display>
                              </coding>
                           </valueCodeableConcept>
                        </extension>
                        <extension url="https://fhir.gkvsv.de/StructureDefinition/GKVSV_EX_ERP_VAT_VALUE">
                           <valueMoney>
                              <value value="6.44"></value>
                              <currency value="EUR"></currency>
                           </valueMoney>
                        </extension>
                        <extension url="https://fhir.gkvsv.de/StructureDefinition/GKVSV_EX_ERP_Import">
                           <valueCodeableConcept>
                              <coding>
                                 <system value="https://fhir.gkvsv.de/CodeSystem/GKVSV_CS_ERP_Import"></system>
                                 <code value="0"></code>
                              </coding>
                           </valueCodeableConcept>
                        </extension>
                        <sequence value="1"></sequence>
                        <chargeItemCodeableConcept>
                           <coding>
                              <system value="http://terminology.hl7.org/CodeSystem/v3-NullFlavor"></system>
                              <code value="UNC"></code>
                           </coding>
                        </chargeItemCodeableConcept>
                        <priceComponent>
                           <type value="deduction"></type>
                           <code>
                              <coding>
                                 <system value="https://fhir.gkvsv.de/CodeSystem/GKVSV_CS_ERP_ZuAbschlagKey"></system>
                                 <code value="R001"></code>
                              </coding>
                           </code>
                           <amount>
                              <value value="-1.77"></value>
                              <currency value="EUR"></currency>
                           </amount>
                        </priceComponent>
                     </lineItem>
                  </Invoice>
               </resource>
            </entry>
         </Bundle>
      </resource>
   </entry>
</Bundle>