<?xml version="1.0" encoding="UTF-8"?>
<Bundle xmlns="http://hl7.org/fhir">
   <id value="ff8fe79e-2d23-4d4d-8e5b-9c097b59f187"/>
   <meta>
      <profile value="https://fhir.gkvsv.de/StructureDefinition/GKVSV_PR_TA7_Sammelrechnung_Bundle|1.0.6"/>
   </meta>
   <identifier>
      <extension url="https://fhir.gkvsv.de/StructureDefinition/GKVSV_EX_ERP_TA7_Dateinummer">
         <valueString value="00061"/>
      </extension>
      <system value="https://fhir.gkvsv.de/NamingSystem/GKVSV_NS_Dateiname"/>
      <value value="ARZFHR21061"/>
   </identifier>
   <type value="document"/>
   <timestamp value="2021-08-10T10:00:00Z"/>
   <entry>
      <fullUrl value="urn:uuid:c72563e0-c727-4102-a806-1a0cbedcf239"/>
      <resource>
         <Composition>
            <id value="c72563e0-c727-4102-a806-1a0cbedcf239"/>
            <meta>
               <profile value="https://fhir.gkvsv.de/StructureDefinition/GKVSV_PR_TA7_Sammelrechnung_Composition|1.0.6"/>
            </meta>
            <extension url="https://fhir.gkvsv.de/StructureDefinition/GKVSV_EX_TA7_IK_Empfaenger">
               <valueIdentifier>
                  <system value="http://fhir.de/NamingSystem/arge-ik/iknr"/>
                  <value value="107436557"/>
               </valueIdentifier>
            </extension>
            <extension url="https://fhir.gkvsv.de/StructureDefinition/GKVSV_EX_TA7_IK_Kostentraeger">
               <valueIdentifier>
                  <system value="http://fhir.de/NamingSystem/arge-ik/iknr"/>
                  <value value="121191241"/>
               </valueIdentifier>
            </extension>
            <status value="final"/>
            <type>
               <coding>
                  <system value="https://fhir.gkvsv.de/CodeSystem/GKVSV_CS_ERP_TA7"/>
                  <code value="SR"/>
                  <display value="Sammelrechnung"/>
               </coding>
            </type>
            <date value="2021-07-31"/>
            <author>
               <identifier>
                  <system value="http://fhir.de/NamingSystem/arge-ik/iknr"/>
                  <value value="987654321"/>
               </identifier>
            </author>
            <title value="elektronische Sammelrechnung"/>
            <section>
               <code>
                  <coding>
                     <system value="https://fhir.gkvsv.de/CodeSystem/GKVSV_CS_ERP_TA7"/>
                     <code value="LSR"/>
                     <display value="Liste der Sammelrechnungen"/>
                  </coding>
               </code>
               <entry>
                  <reference value="urn:uuid:234822d1-50e1-417c-8cbf-4a825ece5b5a"/>
               </entry>
            </section>
            <section>
               <code>
                  <coding>
                     <system value="https://fhir.gkvsv.de/CodeSystem/GKVSV_CS_ERP_TA7"/>
                     <code value="R"/>
                     <display value="Rechnungen"/>
                  </coding>
               </code>
               <entry>
                  <reference value="urn:uuid:7fce8e8e-8189-4967-b9fe-8dabd1e7576f"/>
               </entry>
            </section>
         </Composition>
      </resource>
   </entry>
   <entry>
      <fullUrl value="urn:uuid:234822d1-50e1-417c-8cbf-4a825ece5b5a"/>
      <resource>
         <List>
            <id value="234822d1-50e1-417c-8cbf-4a825ece5b5a"/>
            <meta>
               <profile value="https://fhir.gkvsv.de/StructureDefinition/GKVSV_PR_TA7_Sammelrechnung_List|1.0.6"/>
            </meta>
            <status value="current"/>
            <mode value="working"/>
            <entry>
               <item>
                  <reference value="Bundle/ff8fe79e-2d23-4d4d-8e5b-9c097b59f187"/>
               </item>
            </entry>
         </List>
      </resource>
   </entry>
   <entry>
      <fullUrl value="urn:uuid:7fce8e8e-8189-4967-b9fe-8dabd1e7576f"/>
      <resource>
         <Invoice>
            <id value="7fce8e8e-8189-4967-b9fe-8dabd1e7576f"/>
            <meta>
               <profile value="https://fhir.gkvsv.de/StructureDefinition/GKVSV_PR_TA7_Rechnung|1.0.6"/>
            </meta>
            <extension url="https://fhir.gkvsv.de/StructureDefinition/GKVSV_EX_ERP_TA7_Abrechnungszeitraum">
               <valueDateTime value="2021-07-31"/>
            </extension>
            <extension url="https://fhir.gkvsv.de/StructureDefinition/GKVSV_EX_ERP_RezeptBundleReferenz">
               <extension url="lineItem">
                  <valueReference>
                     <reference value="urn:uuid:4d521ac4-089f-4eb8-af62-089184ae3517"/>
                  </valueReference>
               </extension>
            </extension>
            <identifier>
               <system value="https://fhir.gkvsv.de/NamingSystem/GKVSV_NS_Sammelrechnungsnummer"/>
               <value value="121191241-05-100821"/>
            </identifier>
            <status value="issued"/>
            <type>
               <coding>
                  <system value="https://fhir.gkvsv.de/CodeSystem/GKVSV_CS_ERP_Rechnungsart"/>
                  <code value="6"/>
               </coding>
            </type>
            <recipient>
               <identifier>
                  <system value="http://fhir.de/NamingSystem/arge-ik/iknr"/>
                  <value value="121191241"/>
               </identifier>
            </recipient>
            <date value="2021-08-10"/>
         </Invoice>
      </resource>
   </entry>
   <entry>
      <fullUrl value="urn:uuid:4d521ac4-089f-4eb8-af62-089184ae3517"/>
      <resource>
         <Bundle>
            <id value="4d521ac4-089f-4eb8-af62-089184ae3517"/>
            <meta>
               <profile value="https://fhir.gkvsv.de/StructureDefinition/GKVSV_PR_TA7_RezeptBundle|1.0.6"/>
            </meta>
            <type value="collection"/>
            <entry>
               <link>
                  <relation value="item"/>
                  <url value="https://fhir.kbv.de/StructureDefinition/KBV_PR_ERP_Bundle"/>
               </link>
               <fullUrl value="urn:uuid:b90df913-2c11-40d1-b030-ba9b8952c5c9"/>
               <resource>
                  <Binary>
                     <id value="b90df913-2c11-40d1-b030-ba9b8952c5c9"/>
                     <meta>
                        <profile value="https://gematik.de/fhir/StructureDefinition/ErxBinary"/>
                     </meta>
                     <contentType value="application/pkcs7-mime"/>
                     <data value=""/>
                  </Binary>
               </resource>
            </entry>
            <entry>
               <link>
                  <relation value="item"/>
                  <url value="https://gematik.de/fhir/StructureDefinition/ErxReceipt"/>
               </link>
               <fullUrl value="urn:uuid:35ea5ddd-796d-4a30-9b0e-91adf593e688"/>
               <resource>
                  <Bundle>
                     <id value="35ea5ddd-796d-4a30-9b0e-91adf593e688"/>
                     <meta>
                        <profile value="https://gematik.de/fhir/StructureDefinition/ErxReceipt"/>
                     </meta>
                     <identifier>
                        <system value="https://gematik.de/fhir/NamingSystem/PrescriptionID"/>
                        <value value="160.000.000.000.030.64"/>
                     </identifier>
                     <type value="document"/>
                     <timestamp value="2021-07-27T09:30:00Z"/>
                     <link>
                        <relation value="self"/>
                        <url value="https://erp-ref.zentral.erp.splitdns.ti-dienste.de/Task/160.000.000.000.030.64/$close/"/>
                     </link>
                     <entry>
                        <fullUrl value="urn:uuid:be3b4bf7-41b9-4116-be84-36c14c59e5ce"/>
                        <resource>
                           <Composition>
                              <id value="be3b4bf7-41b9-4116-be84-36c14c59e5ce"/>
                              <meta>
                                 <profile value="https://gematik.de/fhir/StructureDefinition/ErxComposition"/>
                              </meta>
                              <extension url="https://gematik.de/fhir/StructureDefinition/BeneficiaryExtension">
                                 <valueIdentifier>
                                    <system value="https://gematik.de/fhir/NamingSystem/TelematikID"/>
                                    <value value="606358757"/>
                                 </valueIdentifier>
                              </extension>
                              <status value="final"/>
                              <type>
                                 <coding>
                                    <system value="https://gematik.de/fhir/CodeSystem/Documenttype"/>
                                    <code value="3"/>
                                    <display value="Receipt"/>
                                 </coding>
                              </type>
                              <date value="2021-07-27T09:30:00Z"/>
                              <author>
                                 <reference value="https://gematik.erppre.de:443/Device"/>
                              </author>
                              <title value="Quittung"/>
                              <event>
                                 <period>
                                    <start value="2021-07-27T08:45:00Z"/>
                                    <end value="2021-07-27T09:30:00Z"/>
                                 </period>
                              </event>
                           </Composition>
                        </resource>
                     </entry>
                     <entry>
                        <fullUrl value="https://gematik.erppre.de:443/Device"/>
                        <resource>
                           <Device>
                              <id value="1"/>
                              <meta>
                                 <profile value="https://gematik.de/fhir/StructureDefinition/ErxDevice"/>
                              </meta>
                              <status value="active"/>
                              <serialNumber value="0.3.1"/>
                              <deviceName>
                                 <name value="E-Rezept Fachdienst"/>
                                 <type value="user-friendly-name"/>
                              </deviceName>
                              <version>
                                 <value value="0.3.1"/>
                              </version>
                              <contact>
                                 <system value="email"/>
                                 <value value="betrieb@gematik.de"/>
                              </contact>
                           </Device>
                        </resource>
                     </entry>
                     <signature>
                        <type>
                           <system value="urn:iso-astm:E1762-95:2013"/>
                           <code value="1.2.840.10065.1.12.1.1"/>
                        </type>
                        <when value="2021-07-27T09:30:00Z"/>
                        <who>
                           <reference value="https://gematik.erppre.de:443/Device"/>
                        </who>
                        <sigFormat value="application/pkcs7-mime"/>
                        <data value=""/>
                     </signature>
                  </Bundle>
               </resource>
            </entry>
            <entry>
               <link>
                  <relation value="item"/>
                  <url value="http://fhir.abda.de/eRezeptAbgabedaten/StructureDefinition/DAV-PR-ERP-AbgabedatenBundle"/>
               </link>
               <fullUrl value="urn:uuid:1e687ede-6b80-4bc4-93c7-a831194ccb66"/>
               <resource>
                  <Binary>
                     <id value="1e687ede-6b80-4bc4-93c7-a831194ccb66"/>
                     <meta>
                        <profile value="https://gematik.de/fhir/StructureDefinition/ErxBinary"/>
                     </meta>
                     <contentType value="application/pkcs7-mime"/>
                     <data value=""/>
                  </Binary>
               </resource>
            </entry>
            <entry>
               <link>
                  <relation value="item"/>
                  <url value="https://fhir.gkvsv.de/StructureDefinition/GKVSV_PR_ERP_eAbrechnungsdaten"/>
               </link>
               <fullUrl value="urn:uuid:034a0ded-cd92-4597-aeaa-d6082742eafd"/>
               <resource>
                  <Invoice>
                     <id value="034a0ded-cd92-4597-aeaa-d6082742eafd"/>
                     <meta>
                        <profile value="https://fhir.gkvsv.de/StructureDefinition/GKVSV_PR_ERP_eAbrechnungsdaten|1.0.6"/>
                     </meta>
                     <extension url="https://fhir.gkvsv.de/StructureDefinition/GKVSV_EX_ERP_Irrlaeufer">
                        <valueBoolean value="false"/>
                     </extension>
                     <identifier>
                        <system value="https://gematik.de/fhir/NamingSystem/PrescriptionID"/>
                        <value value="160.000.000.000.030.64"/>
                     </identifier>
                     <identifier>
                        <system value="https://fhir.gkvsv.de/NamingSystem/GKVSV_NS_Belegnummer"/>
                        <value value="2107000000267654321"/>
                     </identifier>
                     <status value="issued"/>
                     <issuer>
                        <extension url="https://fhir.gkvsv.de/StructureDefinition/GKVSV_EX_ERP_LE_Sitz">
                           <valueCoding>
                              <system value="https://fhir.gkvsv.de/CodeSystem/GKVSV_CS_ERP_Leistungserbringer_Sitz"/>
                              <code value="1"/>
                           </valueCoding>
                        </extension>
                        <identifier>
                           <type>
                              <coding>
                                 <system value="https://fhir.gkvsv.de/CodeSystem/GKVSV_CS_ERP_Leistungserbringertyp"/>
                                 <code value="A"/>
                              </coding>
                           </type>
                           <system value="http://fhir.de/NamingSystem/arge-ik/iknr"/>
                           <value value="308412345"/>
                        </identifier>
                     </issuer>
                     <lineItem>
                        <extension url="https://fhir.gkvsv.de/StructureDefinition/GKVSV_EX_ERP_Positionstyp">
                           <valueCodeableConcept>
                              <coding>
                                 <system value="https://fhir.gkvsv.de/CodeSystem/GKVSV_CS_ERP_Positionstyp"/>
                                 <code value="1"/>
                                 <display value="brige Position"/>
                              </coding>
                           </valueCodeableConcept>
                        </extension>
                        <extension url="https://fhir.gkvsv.de/StructureDefinition/GKVSV_EX_ERP_VAT_VALUE">
                           <valueMoney>
                              <value value="6.44"/>
                              <currency value="EUR"/>
                           </valueMoney>
                        </extension>
                        <extension url="https://fhir.gkvsv.de/StructureDefinition/GKVSV_EX_ERP_Import">
                           <valueCodeableConcept>
                              <coding>
                                 <system value="https://fhir.gkvsv.de/CodeSystem/GKVSV_CS_ERP_Import"/>
                                 <code value="0"/>
                              </coding>
                           </valueCodeableConcept>
                        </extension>
                        <sequence value="1"/>
                        <chargeItemCodeableConcept>
                           <coding>
                              <system value="http://terminology.hl7.org/CodeSystem/v3-NullFlavor"/>
                              <code value="UNC"/>
                           </coding>
                        </chargeItemCodeableConcept>
                        <priceComponent>
                           <type value="deduction"/>
                           <code>
                              <coding>
                                 <system value="https://fhir.gkvsv.de/CodeSystem/GKVSV_CS_ERP_ZuAbschlagKey"/>
                                 <code value="R001"/>
                              </coding>
                           </code>
                           <amount>
                              <value value="-1.77"/>
                              <currency value="EUR"/>
                           </amount>
                        </priceComponent>
                     </lineItem>
                  </Invoice>
               </resource>
            </entry>
         </Bundle>
      </resource>
   </entry>
</Bundle>
