<Bundle xmlns="http://hl7.org/fhir">
   <id value="7bb3c614-0da1-4761-8c70-c6ced2614fce"></id>
   <meta>
      <profile value="https://fhir.gkvsv.de/StructureDefinition/GKVSV_PR_TA7_Sammelrechnung_Bundle|1.2"></profile>
      <tag>
         <display value="Beispiel der TA7/eAbrechnungsdaten."></display>
      </tag>
      <tag>
         <display value="ACHTUNG! Der fachlich korrekte Inhalt der Beispielinstanz kann nicht gew채hrleistet werden. Wir sind jederzeit dankbar f체r Hinweise auf Fehler oder f체r Verbesserungsvorschl채ge."></display>
      </tag>
   </meta>
   <identifier>
      <extension url="https://fhir.gkvsv.de/StructureDefinition/GKVSV_EX_ERP_TA7_Dateinummer">
         <valueString value="00053"></valueString>
      </extension>
      <system value="https://fhir.gkvsv.de/NamingSystem/GKVSV_NS_Dateiname"></system>
      <value value="ARZFHR21053"></value>
   </identifier>
   <type value="document"></type>
   <timestamp value="2021-06-10T10:00:00Z"></timestamp>
   <entry>
      <fullUrl value="urn:uuid:0f42707b-c305-469e-a8ee-a1b9ec985b7d"></fullUrl>
      <resource>
         <Composition xmlns="http://hl7.org/fhir">
            <id value="0f42707b-c305-469e-a8ee-a1b9ec985b7d"></id>
            <meta>
               <profile value="https://fhir.gkvsv.de/StructureDefinition/GKVSV_PR_TA7_Sammelrechnung_Composition|1.2"></profile>
            </meta>
            <extension url="https://fhir.gkvsv.de/StructureDefinition/GKVSV_EX_TA7_IK_Empfaenger">
               <valueIdentifier>
                  <system value="http://fhir.de/NamingSystem/arge-ik/iknr"></system>
                  <value value="101575519"></value>
               </valueIdentifier>
            </extension>
            <extension url="https://fhir.gkvsv.de/StructureDefinition/GKVSV_EX_TA7_IK_Kostentraeger">
               <valueIdentifier>
                  <system value="http://fhir.de/NamingSystem/arge-ik/iknr"></system>
                  <value value="101575519"></value>
               </valueIdentifier>
            </extension>
            <status value="final"></status>
            <type>
               <coding>
                  <system value="https://fhir.gkvsv.de/CodeSystem/GKVSV_CS_ERP_TA7"></system>
                  <code value="SR"></code>
                  <display value="Sammelrechnung"></display>
               </coding>
            </type>
            <date value="2021-05-31"></date>
            <author>
               <identifier>
                  <system value="http://fhir.de/NamingSystem/arge-ik/iknr"></system>
                  <value value="987654321"></value>
               </identifier>
            </author>
            <title value="elektronische Sammelrechnung"></title>
            <section>
               <code>
                  <coding>
                     <system value="https://fhir.gkvsv.de/CodeSystem/GKVSV_CS_ERP_TA7"></system>
                     <code value="LSR"></code>
                     <display value="Liste der Sammelrechnungen"></display>
                  </coding>
               </code>
               <entry>
                  <reference value="urn:uuid:5f849e01-46a2-40f8-93e6-e3eae319203c"></reference>
               </entry>
            </section>
            <section>
               <code>
                  <coding>
                     <system value="https://fhir.gkvsv.de/CodeSystem/GKVSV_CS_ERP_TA7"></system>
                     <code value="R"></code>
                     <display value="Rechnungen"></display>
                  </coding>
               </code>
               <entry>
                  <reference value="urn:uuid:7201c8bd-1837-42d3-bb8f-074e1e6e9761"></reference>
               </entry>
            </section>
         </Composition>
      </resource>
   </entry>
   <entry>
      <fullUrl value="urn:uuid:5f849e01-46a2-40f8-93e6-e3eae319203c"></fullUrl>
      <resource>
         <List xmlns="http://hl7.org/fhir">
            <id value="5f849e01-46a2-40f8-93e6-e3eae319203c"></id>
            <meta>
               <profile value="https://fhir.gkvsv.de/StructureDefinition/GKVSV_PR_TA7_Sammelrechnung_List|1.2"></profile>
            </meta>
            <status value="current"></status>
            <mode value="working"></mode>
            <entry>
               <item>
                  <reference value="Bundle/7bb3c614-0da1-4761-8c70-c6ced2614fce"></reference>
               </item>
            </entry>
         </List>
      </resource>
   </entry>
   <entry>
      <fullUrl value="urn:uuid:7201c8bd-1837-42d3-bb8f-074e1e6e9761"></fullUrl>
      <resource>
         <Invoice xmlns="http://hl7.org/fhir">
            <id value="7201c8bd-1837-42d3-bb8f-074e1e6e9761"></id>
            <meta>
               <profile value="https://fhir.gkvsv.de/StructureDefinition/GKVSV_PR_TA7_Rechnung|1.2"></profile>
            </meta>
            <extension url="https://fhir.gkvsv.de/StructureDefinition/GKVSV_EX_ERP_TA7_Abrechnungszeitraum">
               <valueDateTime value="2021-05-31"></valueDateTime>
            </extension>
            <extension url="https://fhir.gkvsv.de/StructureDefinition/GKVSV_EX_ERP_RezeptBundleReferenz">
               <extension url="lineItem">
                  <valueReference>
                     <reference value="urn:uuid:6de81234-84da-43f8-9266-571e835f9473"></reference>
                  </valueReference>
               </extension>
            </extension>
            <identifier>
               <system value="https://fhir.gkvsv.de/NamingSystem/GKVSV_NS_Sammelrechnungsnummer"></system>
               <value value="109777509-05-100621"></value>
            </identifier>
            <status value="issued"></status>
            <type>
               <coding>
                  <system value="https://fhir.gkvsv.de/CodeSystem/GKVSV_CS_ERP_Rechnungsart"></system>
                  <code value="6"></code>
               </coding>
            </type>
            <recipient>
               <identifier>
                  <system value="http://fhir.de/NamingSystem/arge-ik/iknr"></system>
                  <value value="101575519"></value>
               </identifier>
            </recipient>
            <date value="2021-06-10"></date>
         </Invoice>
      </resource>
   </entry>
   <entry>
      <fullUrl value="urn:uuid:6de81234-84da-43f8-9266-571e835f9473"></fullUrl>
      <resource>
         <Bundle xmlns="http://hl7.org/fhir">
            <id value="6de81234-84da-43f8-9266-571e835f9473"></id>
            <meta>
               <profile value="https://fhir.gkvsv.de/StructureDefinition/GKVSV_PR_TA7_RezeptBundle|1.2"></profile>
            </meta>
            <type value="collection"></type>
            <entry>
               <link>
                  <relation value="item"></relation>
                  <url value="https://fhir.kbv.de/StructureDefinition/KBV_PR_ERP_Bundle"></url>
               </link>
               <fullUrl value="urn:uuid:f47e00a6-66e4-4236-a999-c085113ff00c"></fullUrl>
               <resource>
                  <Binary xmlns="http://hl7.org/fhir">
                     <id value="f47e00a6-66e4-4236-a999-c085113ff00c"></id>
                     <meta>
                        <profile value="https://gematik.de/fhir/StructureDefinition/ErxBinary"></profile>
                     </meta>
                     <contentType value="application/pkcs7-mime"></contentType>
                     <data value=""></data>
                  </Binary>
               </resource>
            </entry>
            <entry>
               <link>
                  <relation value="item"></relation>
                  <url value="https://gematik.de/fhir/StructureDefinition/ErxReceipt"></url>
               </link>
               <fullUrl value="urn:uuid:60132b6c-cc20-449b-b174-d0717092f8c6"></fullUrl>
               <resource>
                  <Binary xmlns="http://hl7.org/fhir">
                     <id value="60132b6c-cc20-449b-b174-d0717092f8c6"></id>
                     <meta>
                        <profile value="https://gematik.de/fhir/StructureDefinition/ErxBinary"></profile>
                     </meta>
                     <contentType value="application/pkcs7-mime"></contentType>
                     <data value=""></data>
                  </Binary>
               </resource>
            </entry>
            <entry>
               <link>
                  <relation value="item"></relation>
                  <url value="http://fhir.abda.de/eRezeptAbgabedaten/StructureDefinition/DAV-PR-ERP-AbgabedatenBundle"></url>
               </link>
               <fullUrl value="urn:uuid:9567abfd-ed28-4b49-8523-68926dc3f1de"></fullUrl>
               <resource>
                  <Binary xmlns="http://hl7.org/fhir">
                     <id value="9567abfd-ed28-4b49-8523-68926dc3f1de"></id>
                     <meta>
                        <profile value="https://gematik.de/fhir/StructureDefinition/ErxBinary"></profile>
                     </meta>
                     <contentType value="application/pkcs7-mime"></contentType>
                     <data value=""></data>
                  </Binary>
               </resource>
            </entry>
            <entry>
               <link>
                  <relation value="item"></relation>
                  <url value="https://fhir.gkvsv.de/StructureDefinition/GKVSV_PR_ERP_eAbrechnungsdaten"></url>
               </link>
               <fullUrl value="urn:uuid:e2a36c47-8eaf-4767-a393-de657be067c1"></fullUrl>
               <resource>
                  <Invoice xmlns="http://hl7.org/fhir">
                     <id value="e2a36c47-8eaf-4767-a393-de657be067c1"></id>
                     <meta>
                        <profile value="https://fhir.gkvsv.de/StructureDefinition/GKVSV_PR_ERP_eAbrechnungsdaten|1.2"></profile>
                     </meta>
                     <extension url="https://fhir.gkvsv.de/StructureDefinition/GKVSV_EX_ERP_Irrlaeufer">
                        <valueBoolean value="false"></valueBoolean>
                     </extension>
                     <identifier>
                        <system value="https://gematik.de/fhir/NamingSystem/PrescriptionID"></system>
                        <value value="160.000.000.000.027.73"></value>
                     </identifier>
                     <identifier>
                        <system value="https://fhir.gkvsv.de/NamingSystem/GKVSV_NS_Belegnummer"></system>
                        <value value="2105000000237654321"></value>
                     </identifier>
                     <status value="issued"></status>
                     <issuer>
                        <extension url="https://fhir.gkvsv.de/StructureDefinition/GKVSV_EX_ERP_LE_Sitz">
                           <valueCoding>
                              <system value="https://fhir.gkvsv.de/CodeSystem/GKVSV_CS_ERP_Leistungserbringer_Sitz"></system>
                              <code value="1"></code>
                           </valueCoding>
                        </extension>
                        <identifier>
                           <type>
                              <coding>
                                 <system value="https://fhir.gkvsv.de/CodeSystem/GKVSV_CS_ERP_Leistungserbringertyp"></system>
                                 <code value="A"></code>
                              </coding>
                           </type>
                           <system value="http://fhir.de/NamingSystem/arge-ik/iknr"></system>
                           <value value="123456789"></value>
                        </identifier>
                     </issuer>
                     <lineItem>
                        <extension url="https://fhir.gkvsv.de/StructureDefinition/GKVSV_EX_ERP_Positionstyp">
                           <valueCodeableConcept>
                              <coding>
                                 <system value="https://fhir.gkvsv.de/CodeSystem/GKVSV_CS_ERP_Positionstyp"></system>
                                 <code value="1"></code>
                                 <display value="체brige Position"></display>
                              </coding>
                           </valueCodeableConcept>
                        </extension>
                        <extension url="https://fhir.gkvsv.de/StructureDefinition/GKVSV_EX_ERP_VAT_VALUE">
                           <valueMoney>
                              <value value="2.25"></value>
                              <currency value="EUR"></currency>
                           </valueMoney>
                        </extension>
                        <extension url="https://fhir.gkvsv.de/StructureDefinition/GKVSV_EX_ERP_Import">
                           <valueCodeableConcept>
                              <coding>
                                 <system value="https://fhir.gkvsv.de/CodeSystem/GKVSV_CS_ERP_Import"></system>
                                 <code value="0"></code>
                              </coding>
                           </valueCodeableConcept>
                        </extension>
                        <sequence value="1"></sequence>
                        <chargeItemCodeableConcept>
                           <coding>
                              <system value="http://terminology.hl7.org/CodeSystem/v3-NullFlavor"></system>
                              <code value="UNC"></code>
                           </coding>
                        </chargeItemCodeableConcept>
                        <priceComponent>
                           <type value="deduction"></type>
                           <code>
                              <coding>
                                 <system value="https://fhir.gkvsv.de/CodeSystem/GKVSV_CS_ERP_ZuAbschlagKey"></system>
                                 <code value="R001"></code>
                              </coding>
                           </code>
                           <amount>
                              <value value="-1.77"></value>
                              <currency value="EUR"></currency>
                           </amount>
                        </priceComponent>
                     </lineItem>
                  </Invoice>
               </resource>
            </entry>
         </Bundle>
      </resource>
   </entry>
</Bundle>