<Bundle xmlns="http://hl7.org/fhir">
  <id value="f2f93dac-26a6-47c1-9b90-de8ca129a771" />
  <meta>
    <profile value="https://fhir.gkvsv.de/StructureDefinition/GKVSV_PR_TA7_Sammelrechnung_Bundle|1.0.4" />
    <tag>
      <display value="Beispiel der TA7/eAbrechnungsdaten." />
    </tag>
    <tag>
      <display value="ACHTUNG! Der fachlich korrekte Inhalt der Beispielinstanz kann nicht gew채hrleistet werden. Wir sind jederzeit dankbar f체r Hinweise auf Fehler oder f체r Verbesserungsvorschl채ge." />
    </tag>
  </meta>
  <identifier>
    <extension url="https://fhir.gkvsv.de/StructureDefinition/GKVSV_EX_ERP_TA7_Dateinummer">
      <valueString value="00003" />
    </extension>
    <system value="https://fhir.gkvsv.de/NamingSystem/GKVSV_NS_Dateiname" />
    <value value="ARZABR21003" />
  </identifier>
  <type value="document" />
  <timestamp value="2021-10-04T10:00:00Z" />
  <entry>
    <fullUrl value="urn:uuid:da572362-6a88-4d0e-9fda-9ed76f80c446" />
    <resource>
      <Composition>
        <id value="da572362-6a88-4d0e-9fda-9ed76f80c446" />
        <meta>
          <profile value="https://fhir.gkvsv.de/StructureDefinition/GKVSV_PR_TA7_Sammelrechnung_Composition|1.0.4" />
        </meta>
        <extension url="https://fhir.gkvsv.de/StructureDefinition/GKVSV_EX_TA7_IK_Empfaenger">
          <valueIdentifier>
            <system value="http://fhir.de/NamingSystem/arge-ik/iknr" />
            <value value="109777509" />
          </valueIdentifier>
        </extension>
        <extension url="https://fhir.gkvsv.de/StructureDefinition/GKVSV_EX_TA7_IK_Kostentraeger">
          <valueIdentifier>
            <system value="http://fhir.de/NamingSystem/arge-ik/iknr" />
            <value value="109777509" />
          </valueIdentifier>
        </extension>
        <status value="final" />
        <type>
          <coding>
            <system value="https://fhir.gkvsv.de/CodeSystem/GKVSV_CS_ERP_TA7" />
            <code value="SR" />
            <display value="Sammelrechnung" />
          </coding>
        </type>
        <date value="2021-09-30" />
        <author>
          <identifier>
            <system value="http://fhir.de/NamingSystem/arge-ik/iknr" />
            <value value="987654321" />
          </identifier>
        </author>
        <title value="elektronische Sammelrechnung" />
        <section>
          <code>
            <coding>
              <system value="https://fhir.gkvsv.de/CodeSystem/GKVSV_CS_ERP_TA7" />
              <code value="LSR" />
              <display value="Liste der Sammelrechnungen" />
            </coding>
          </code>
          <entry>
            <reference value="urn:uuid:8d43f5cb-c79d-4feb-8316-e37c48486e17" />
          </entry>
        </section>
        <section>
          <code>
            <coding>
              <system value="https://fhir.gkvsv.de/CodeSystem/GKVSV_CS_ERP_TA7" />
              <code value="R" />
              <display value="Rechnungen" />
            </coding>
          </code>
          <entry>
            <reference value="urn:uuid:a52af086-04d4-4f06-a6bd-3c462a6a305c" />
          </entry>
        </section>
      </Composition>
    </resource>
  </entry>
  <entry>
    <fullUrl value="urn:uuid:8d43f5cb-c79d-4feb-8316-e37c48486e17" />
    <resource>
      <List>
        <id value="8d43f5cb-c79d-4feb-8316-e37c48486e17" />
        <meta>
          <profile value="https://fhir.gkvsv.de/StructureDefinition/GKVSV_PR_TA7_Sammelrechnung_List|1.0.4" />
        </meta>
        <status value="current" />
        <mode value="working" />
        <entry>
          <item>
            <reference value="Bundle/f2f93dac-26a6-47c1-9b90-de8ca129a771" />
          </item>
        </entry>
      </List>
    </resource>
  </entry>
  <entry>
    <fullUrl value="urn:uuid:a52af086-04d4-4f06-a6bd-3c462a6a305c" />
    <resource>
      <Invoice>
        <id value="a52af086-04d4-4f06-a6bd-3c462a6a305c" />
        <meta>
          <profile value="https://fhir.gkvsv.de/StructureDefinition/GKVSV_PR_TA7_Rechnung|1.0.4" />
        </meta>
        <extension url="https://fhir.gkvsv.de/StructureDefinition/GKVSV_EX_ERP_TA7_Abrechnungszeitraum">
          <valueDateTime value="2021-09-30" />
        </extension>
        <extension url="https://fhir.gkvsv.de/StructureDefinition/GKVSV_EX_ERP_RezeptBundleReferenz">
          <extension url="lineItem">
            <valueReference>
              <reference value="urn:uuid:05eb23e3-0729-4430-bad7-48e3ade5bcea" />
            </valueReference>
          </extension>
        </extension>
        <identifier>
          <system value="https://fhir.gkvsv.de/NamingSystem/GKVSV_NS_Sammelrechnungsnummer" />
          <value value="3" />
        </identifier>
        <status value="issued" />
        <type>
          <coding>
            <system value="https://fhir.gkvsv.de/CodeSystem/GKVSV_CS_ERP_Rechnungsart" />
            <code value="1" />
          </coding>
        </type>
        <recipient>
          <identifier>
            <system value="http://fhir.de/NamingSystem/arge-ik/iknr" />
            <value value="109777509" />
          </identifier>
        </recipient>
        <date value="2021-10-04" />
      </Invoice>
    </resource>
  </entry>
  <entry>
    <fullUrl value="urn:uuid:05eb23e3-0729-4430-bad7-48e3ade5bcea" />
    <resource>
      <Bundle>
        <id value="05eb23e3-0729-4430-bad7-48e3ade5bcea" />
        <meta>
          <profile value="https://fhir.gkvsv.de/StructureDefinition/GKVSV_PR_TA7_RezeptBundle|1.0.4" />
        </meta>
        <type value="collection" />
        <entry>
          <link>
            <relation value="item" />
            <url value="https://fhir.kbv.de/StructureDefinition/KBV_PR_ERP_Bundle" />
          </link>
          <fullUrl value="urn:uuid:fa687b23-82b5-49ab-be77-41bf9b74f77f" />
          <resource>
            <Binary>
              <id value="fa687b23-82b5-49ab-be77-41bf9b74f77f" />
              <meta>
                <profile value="https://gematik.de/fhir/StructureDefinition/ErxBinary" />
              </meta>
              <contentType value="application/pkcs7-mime" />
              <data value="VmVyb3JkbnVuZ3NkYXRlbiBCZWlzcGllbCBFcnN0ZWxsdW5nIEJlaXNwaWVsIGVBYnJlY2hudW5nc2RhdGVu" />
            </Binary>
          </resource>
        </entry>
        <entry>
          <link>
            <relation value="item" />
            <url value="https://gematik.de/fhir/StructureDefinition/ErxReceipt" />
          </link>
          <fullUrl value="urn:uuid:449554bd-a3f7-40a7-9e14-7e08c6cd3736" />
          <resource>
            <Bundle>
              <id value="449554bd-a3f7-40a7-9e14-7e08c6cd3736" />
              <meta>
                <profile value="https://gematik.de/fhir/StructureDefinition/ErxReceipt" />
              </meta>
              <identifier>
                <system value="https://gematik.de/fhir/NamingSystem/PrescriptionID" />
                <value value="160.100.000.000.016.91" />
              </identifier>
              <type value="document" />
              <timestamp value="2021-09-15T09:30:00Z" />
              <link>
                <relation value="self" />
                <url value="https://gematik.erppre.de:443/Task/160.100.000.000.016.91/$close" />
              </link>
              <entry>
                <fullUrl value="urn:uuid:23d3d186-1b3f-4cff-ae65-726f46dcad25" />
                <resource>
                  <Composition>
                    <id value="23d3d186-1b3f-4cff-ae65-726f46dcad25" />
                    <meta>
                      <profile value="https://gematik.de/fhir/StructureDefinition/ErxComposition" />
                    </meta>
                    <extension url="https://gematik.de/fhir/StructureDefinition/BeneficiaryExtension">
                      <valueIdentifier>
                        <system value="https://gematik.de/fhir/NamingSystem/TelematikID" />
                        <value value="606358757" />
                      </valueIdentifier>
                    </extension>
                    <status value="final" />
                    <type>
                      <coding>
                        <system value="https://gematik.de/fhir/CodeSystem/Documenttype" />
                        <code value="3" />
                        <display value="Receipt" />
                      </coding>
                    </type>
                    <date value="2021-09-15T09:30:00Z" />
                    <author>
                      <reference value="https://gematik.erppre.de:443/Device" />
                    </author>
                    <title value="Quittung" />
                    <event>
                      <period>
                        <start value="2021-09-15T08:45:00Z" />
                        <end value="2021-09-15T09:30:00Z" />
                      </period>
                    </event>
                  </Composition>
                </resource>
              </entry>
              <entry>
                <fullUrl value="https://gematik.erppre.de:443/Device" />
                <resource>
                  <Device>
                    <id value="1" />
                    <meta>
                      <profile value="https://gematik.de/fhir/StructureDefinition/ErxDevice" />
                    </meta>
                    <status value="active" />
                    <serialNumber value="0.3.1" />
                    <deviceName>
                      <name value="E-Rezept Fachdienst" />
                      <type value="user-friendly-name" />
                    </deviceName>
                    <version>
                      <value value="0.3.1" />
                    </version>
                    <contact>
                      <system value="email" />
                      <value value="betrieb@gematik.de" />
                    </contact>
                  </Device>
                </resource>
              </entry>
              <signature>
                <type>
                  <system value="urn:iso-astm:E1762-95:2013" />
                  <code value="1.2.840.10065.1.12.1.1" />
                </type>
                <when value="2021-09-15T09:30:00Z" />
                <who>
                  <reference value="https://gematik.erppre.de:443/Device" />
                </who>
                <sigFormat value="application/pkcs7-mime" />
                <data value="" />
              </signature>
            </Bundle>
          </resource>
        </entry>
        <entry>
          <link>
            <relation value="item" />
            <url value="http://fhir.abda.de/eRezeptAbgabedaten/StructureDefinition/DAV-PR-ERP-AbgabedatenBundle" />
          </link>
          <fullUrl value="urn:uuid:6a976d2b-a4fd-4e27-82f3-e753ac79599a" />
          <resource>
            <Binary>
              <id value="6a976d2b-a4fd-4e27-82f3-e753ac79599a" />
              <meta>
                <profile value="https://gematik.de/fhir/StructureDefinition/ErxBinary" />
              </meta>
              <contentType value="application/pkcs7-mime" />
              <data value="ZUFiZ2FiZWRhdGVuIEJlaXNwaWVsIEVyc3RlbGx1bmcgQmVpc3BpZWwgZUFicmVjaG51bmdzZGF0ZW4=" />
            </Binary>
          </resource>
        </entry>
        <entry>
          <link>
            <relation value="item" />
            <url value="https://fhir.gkvsv.de/StructureDefinition/GKVSV_PR_ERP_eAbrechnungsdaten" />
          </link>
          <fullUrl value="urn:uuid:7ca83717-e1d4-4fea-99d5-3d56bb7ced1a" />
          <resource>
            <Invoice>
              <id value="7ca83717-e1d4-4fea-99d5-3d56bb7ced1a" />
              <meta>
                <profile value="https://fhir.gkvsv.de/StructureDefinition/GKVSV_PR_ERP_eAbrechnungsdaten|1.0.4" />
              </meta>
              <extension url="https://fhir.gkvsv.de/StructureDefinition/GKVSV_EX_ERP_Irrlaeufer">
                <valueBoolean value="false" />
              </extension>
              <identifier>
                <system value="https://gematik.de/fhir/NamingSystem/PrescriptionID" />
                <value value="160.100.000.000.016.91" />
              </identifier>
              <identifier>
                <system value="https://fhir.gkvsv.de/NamingSystem/GKVSV_NS_Belegnummer" />
                <value value="2105000000033456789" />
              </identifier>
              <status value="issued" />
              <issuer>
                <extension url="https://fhir.gkvsv.de/StructureDefinition/GKVSV_EX_ERP_LE_Sitz">
                  <valueCoding>
                    <system value="https://fhir.gkvsv.de/CodeSystem/GKVSV_CS_ERP_Leistungserbringer_Sitz" />
                    <code value="1" />
                  </valueCoding>
                </extension>
                <identifier>
                  <type>
                    <coding>
                      <system value="https://fhir.gkvsv.de/CodeSystem/GKVSV_CS_ERP_Leistungserbringertyp" />
                      <code value="A" />
                    </coding>
                  </type>
                  <system value="http://fhir.de/NamingSystem/arge-ik/iknr" />
                  <value value="123456789" />
                </identifier>
              </issuer>
              <lineItem>
                <extension url="https://fhir.gkvsv.de/StructureDefinition/GKVSV_EX_ERP_Positionstyp">
                  <valueCodeableConcept>
                    <coding>
                      <system value="https://fhir.gkvsv.de/CodeSystem/GKVSV_CS_ERP_Positionstyp" />
                      <code value="0" />
                      <display value="Nullposition" />
                    </coding>
                  </valueCodeableConcept>
                </extension>
                <extension url="https://fhir.gkvsv.de/StructureDefinition/GKVSV_EX_ERP_VAT_VALUE">
                  <valueMoney>
                    <value value="0.00" />
                    <currency value="EUR" />
                  </valueMoney>
                </extension>
                <extension url="https://fhir.gkvsv.de/StructureDefinition/GKVSV_EX_ERP_Import">
                  <valueCodeableConcept>
                    <coding>
                      <system value="https://fhir.gkvsv.de/CodeSystem/GKVSV_CS_ERP_Import" />
                      <code value="0" />
                    </coding>
                  </valueCodeableConcept>
                </extension>
                <sequence value="1" />
                <chargeItemCodeableConcept>
                  <coding>
                    <system value="http://terminology.hl7.org/CodeSystem/v3-NullFlavor" />
                    <code value="UNC" />
                  </coding>
                </chargeItemCodeableConcept>
              </lineItem>
            </Invoice>
          </resource>
        </entry>
      </Bundle>
    </resource>
  </entry>
</Bundle>