<?xml version="1.0" encoding="UTF-8"?>
<Bundle xmlns="http://hl7.org/fhir">
    <id value="9a4cbe77-a352-4de6-8182-8734ffdd018e"/>
    <meta>
        <profile value="http://fhir.abda.de/eRezeptAbgabedaten/StructureDefinition/DAV-PR-ERP-AbgabedatenBundle|1.4"/>
        <tag>
            <display value="Beispiel für Abgabedaten für eine pDL PflegeHiMi PG 51 (9a4cbe77-a352-4de6-8182-8734ffdd018e)"/>
        </tag>
        <tag>
            <display value="ACHTUNG! Der fachlich korrekte Inhalt der Beispielinstanz kann nicht gewährleistet werden. Wir sind jederzeit dankbar für Hinweise auf Fehler oder für Verbesserungsvorschläge."/>
        </tag>
    </meta>
    <identifier>
        <system value="https://gematik.de/fhir/erp/NamingSystem/GEM_ERP_NS_PrescriptionId"/>
        <value value="980.078.268.205.587.32"/>
    </identifier>
    <type value="document"/>
    <timestamp value="2025-06-10T08:30:00Z"/>
    <entry>
        <fullUrl value="urn:uuid:fe9a2947-3aa6-4159-b590-40deb34b47c0"/>
        <resource>
            <Composition>
                <id value="fe9a2947-3aa6-4159-b590-40deb34b47c0"/>
                <meta>
                    <profile value="http://fhir.abda.de/eRezeptAbgabedaten/StructureDefinition/DAV-PR-ERP-AbgabedatenComposition|1.4"/>
                </meta>
                <status value="final"/>
                <type>
                    <coding>
                        <system value="http://fhir.abda.de/eRezeptAbgabedaten/CodeSystem/DAV-CS-ERP-CompositionTypes"/>
                        <code value="ERezeptAbgabedaten"/>
                    </coding>
                </type>
                <date value="2025-06-10T08:30:00Z"/>
                <author>
                    <reference value="urn:uuid:070adc0a-b291-4377-8d65-551cf1e60275"/>
                </author>
                <title value="ERezeptAbgabedaten"/>
                <section>
                    <title value="Abgabeinformationen"/>
                    <entry>
                        <reference value="urn:uuid:d66bf6d5-1a5a-4841-b317-371f0a04b377"/>
                    </entry>
                </section>
                <section>
                    <title value="Apotheke"/>
                    <entry>
                        <reference value="urn:uuid:070adc0a-b291-4377-8d65-551cf1e60275"/>
                    </entry>
                </section>
            </Composition>
        </resource>
    </entry>
    <entry>
        <fullUrl value="urn:uuid:070adc0a-b291-4377-8d65-551cf1e60275"/>
        <resource>
            <Organization>
                <id value="070adc0a-b291-4377-8d65-551cf1e60275"/>
                <meta>
                    <profile value="http://fhir.abda.de/eRezeptAbgabedaten/StructureDefinition/DAV-PR-ERP-Apotheke|1.4"/>
                </meta>
                <identifier>
                    <system value="http://fhir.de/sid/arge-ik/iknr"/>
                    <value value="308412345"/>
                </identifier>
                <name value="Adler-Apotheke"/>
                <address>
                    <type value="physical"/>
                    <line value="Taunusstraße 89">
                        <extension url="http://hl7.org/fhir/StructureDefinition/iso21090-ADXP-streetName">
                            <valueString value="Taunusstraße"/>
                        </extension>
                        <extension url="http://hl7.org/fhir/StructureDefinition/iso21090-ADXP-houseNumber">
                            <valueString value="89"/>
                        </extension>
                    </line>
                    <city value="Langen"/>
                    <postalCode value="63225"/>
                    <country value="D"/>
                </address>
            </Organization>
        </resource>
    </entry>
    <entry>
        <fullUrl value="urn:uuid:d66bf6d5-1a5a-4841-b317-371f0a04b377"/>
        <resource>
            <MedicationDispense>
                <id value="d66bf6d5-1a5a-4841-b317-371f0a04b377"/>
                <meta>
                    <profile value="http://fhir.abda.de/eRezeptAbgabedaten/StructureDefinition/DAV-PR-ERP-Abgabeinformationen|1.4"/>
                </meta>
                <extension url="http://fhir.abda.de/eRezeptAbgabedaten/StructureDefinition/DAV-EX-ERP-Abrechnungszeilen">
                    <valueReference>
                        <reference value="urn:uuid:df97754d-4bf1-4f4b-9a8b-93892d15cc86"/>
                    </valueReference>
                </extension>
                <status value="completed"/>
                <medicationCodeableConcept>
                    <coding>
                        <system value="http://terminology.hl7.org/CodeSystem/data-absent-reason"/>
                        <code value="not-applicable"/>
                    </coding>
                </medicationCodeableConcept>
                <performer>
                    <actor>
                        <reference value="urn:uuid:070adc0a-b291-4377-8d65-551cf1e60275"/>
                    </actor>
                </performer>
                <authorizingPrescription>
                    <identifier>
                        <system value="https://gematik.de/fhir/erp/NamingSystem/GEM_ERP_NS_PrescriptionId"/>
                        <value value="980.078.268.205.587.32"/>
                    </identifier>
                </authorizingPrescription>
                <type>
                    <coding>
                        <system value="http://fhir.abda.de/eRezeptAbgabedaten/CodeSystem/DAV-CS-ERP-MedicationDispenseTyp"/>
                        <code value="Abgabeinformationen"/>
                    </coding>
                </type>
                <whenHandedOver value="2025-06-10"/>
            </MedicationDispense>
        </resource>
    </entry>
    <entry>
        <fullUrl value="urn:uuid:df97754d-4bf1-4f4b-9a8b-93892d15cc86"/>
        <resource>
            <Invoice>
                <id value="df97754d-4bf1-4f4b-9a8b-93892d15cc86"/>
                <meta>
                    <profile value="http://fhir.abda.de/eRezeptAbgabedaten/StructureDefinition/DAV-PR-ERP-Abrechnungszeilen|1.4"/>
                </meta>
                <status value="issued"/>
                <type>
                    <coding>
                        <system value="http://fhir.abda.de/eRezeptAbgabedaten/CodeSystem/DAV-CS-ERP-InvoiceTyp"/>
                        <code value="Abrechnungszeilen"/>
                    </coding>
                </type>
                <lineItem>
                    <extension url="http://fhir.abda.de/eRezeptAbgabedaten/StructureDefinition/DAV-EX-ERP-Zusatzattribute">
                        <extension url="ZusatzattributZusaetzlicheAbgabeangaben">
                            <extension url="Schluessel">
                                <valueBoolean value="true"/>
                            </extension>
                            <extension url="Gruppe">
                                <valueCodeableConcept>
                                    <coding>
                                        <system value="http://fhir.abda.de/eRezeptAbgabedaten/CodeSystem/DAV-CS-ERP-ZusatzattributGruppe"/>
                                        <code value="12"/>
                                    </coding>
                                </valueCodeableConcept>
                            </extension>
                            <extension url="DokumentationFreitext">
                                <valueString value="Tarifkennzeichen 1100P53; Beihilfe nein"/>
                            </extension>
                        </extension>
                        <extension url="ZusatzattributGruppeFuerGenehmigung">
                            <extension url="Schluessel">
                                <valueBoolean value="true"/>
                            </extension>
                            <extension url="Gruppe">
                                <valueCodeableConcept>
                                    <coding>
                                        <system value="http://fhir.abda.de/eRezeptAbgabedaten/CodeSystem/DAV-CS-ERP-ZusatzattributGruppe"/>
                                        <code value="13"/>
                                    </coding>
                                </valueCodeableConcept>
                            </extension>
                            <extension url="DokumentationFreitext">
                                <valueString value="G12345678987456321"/>
                            </extension>
                            <extension url="Datum">
                                <valueDate value="2025-06-10"/>
                            </extension>
                        </extension>
                    </extension>
                    <sequence value="1"/>
                    <chargeItemCodeableConcept>
                        <coding>
                            <system value="http://fhir.de/sid/gkv/hmnr"/>
                            <code value="5499020015"/>
                        </coding>
                    </chargeItemCodeableConcept>
                    <priceComponent>
                        <extension url="http://fhir.abda.de/eRezeptAbgabedaten/StructureDefinition/DAV-EX-ERP-MwStSatz">
                            <valueDecimal value="19.00"/>
                        </extension>
                        <extension url="http://fhir.abda.de/eRezeptAbgabedaten/StructureDefinition/DAV-EX-ERP-KostenVersicherter">
                            <extension url="Kategorie">
                                <valueCodeableConcept>
                                    <coding>
                                        <system value="http://fhir.abda.de/eRezeptAbgabedaten/CodeSystem/DAV-CS-ERP-KostenVersicherterKategorie"/>
                                        <code value="0"/>
                                    </coding>
                                </valueCodeableConcept>
                            </extension>
                            <extension url="Kostenbetrag">
                                <valueMoney>
                                    <value value="0.00"/>
                                    <currency value="EUR"/>
                                </valueMoney>
                            </extension>
                        </extension>
                        <type value="informational"/>
                        <factor value="100"/>
                        <amount>
                            <value value="20.23"/>
                            <currency value="EUR"/>
                        </amount>
                    </priceComponent>
                </lineItem>
                <lineItem>
                    <sequence value="2"/>
                    <chargeItemCodeableConcept>
                        <coding>
                            <system value="http://fhir.de/sid/gkv/hmnr"/>
                            <code value="5499020001"/>
                        </coding>
                    </chargeItemCodeableConcept>
                    <priceComponent>
                        <extension url="http://fhir.abda.de/eRezeptAbgabedaten/StructureDefinition/DAV-EX-ERP-MwStSatz">
                            <valueDecimal value="19.00"/>
                        </extension>
                        <extension url="http://fhir.abda.de/eRezeptAbgabedaten/StructureDefinition/DAV-EX-ERP-KostenVersicherter">
                            <extension url="Kategorie">
                                <valueCodeableConcept>
                                    <coding>
                                        <system value="http://fhir.abda.de/eRezeptAbgabedaten/CodeSystem/DAV-CS-ERP-KostenVersicherterKategorie"/>
                                        <code value="0"/>
                                    </coding>
                                </valueCodeableConcept>
                            </extension>
                            <extension url="Kostenbetrag">
                                <valueMoney>
                                    <value value="0.00"/>
                                    <currency value="EUR"/>
                                </valueMoney>
                            </extension>
                        </extension>
                        <type value="informational"/>
                        <factor value="10"/>
                        <amount>
                            <value value="16.66"/>
                            <currency value="EUR"/>
                        </amount>
                    </priceComponent>
                </lineItem>
                <lineItem>
                    <sequence value="3"/>
                    <chargeItemCodeableConcept>
                        <coding>
                            <system value="http://fhir.de/sid/gkv/hmnr"/>
                            <code value="5499011001"/>
                        </coding>
                    </chargeItemCodeableConcept>
                    <priceComponent>
                        <extension url="http://fhir.abda.de/eRezeptAbgabedaten/StructureDefinition/DAV-EX-ERP-MwStSatz">
                            <valueDecimal value="19.00"/>
                        </extension>
                        <extension url="http://fhir.abda.de/eRezeptAbgabedaten/StructureDefinition/DAV-EX-ERP-KostenVersicherter">
                            <extension url="Kategorie">
                                <valueCodeableConcept>
                                    <coding>
                                        <system value="http://fhir.abda.de/eRezeptAbgabedaten/CodeSystem/DAV-CS-ERP-KostenVersicherterKategorie"/>
                                        <code value="1"/>
                                    </coding>
                                </valueCodeableConcept>
                            </extension>
                            <extension url="Kostenbetrag">
                                <valueMoney>
                                    <value value="16.31"/>
                                    <currency value="EUR"/>
                                </valueMoney>
                            </extension>
                        </extension>
                        <type value="informational"/>
                        <factor value="200"/>
                        <amount>
                            <value value="21.42"/>
                            <currency value="EUR"/>
                        </amount>
                    </priceComponent>
                </lineItem>
                <totalGross>
                    <extension url="http://fhir.abda.de/eRezeptAbgabedaten/StructureDefinition/DAV-EX-ERP-Gesamtzuzahlung">
                        <valueMoney>
                            <value value="0.00"/>
                            <currency value="EUR"/>
                        </valueMoney>
                    </extension>
                    <value value="58.31"/>
                    <currency value="EUR"/>
                </totalGross>
            </Invoice>
        </resource>
    </entry>
</Bundle>