<Bundle xmlns="http://hl7.org/fhir">
    <id value="48c42ed1-6426-4dd7-ba4d-67e02c7aff13"/>
    <meta>
        <profile value="https://gematik.de/fhir/erp/StructureDefinition/GEM_ERP_PR_Bundle|1.5"/>
    </meta>
    <identifier>
        <system value="https://gematik.de/fhir/erp/NamingSystem/GEM_ERP_NS_PrescriptionId"/>
        <value value="980.096.837.001.428.48"/>
    </identifier>
    <type value="document"/>
    <timestamp value="2025-10-10T07:30:00.000+01:00"/>
    <entry>
        <fullUrl value="urn:uuid:940b7c78-1c0c-4505-ba93-ab3f20dca496"/>
        <resource>
            <Composition xmlns="http://hl7.org/fhir">
                <meta>
                    <profile value="https://gematik.de/fhir/erp/StructureDefinition/GEM_ERP_PR_Composition|1.5"/>
                </meta>
                <extension url="https://gematik.de/fhir/erp/StructureDefinition/GEM_ERP_EX_Beneficiary">
                    <valueIdentifier>
                        <system value="https://gematik.de/fhir/sid/telematik-id"/>
                        <value value="3-SMC-B-Testkarte-883110000116873"/> <!-- Apotheken Telematik-ID -->
                    </valueIdentifier>
                </extension>
                <status value="final"/>
                <type>
                    <coding>
                        <system value="https://gematik.de/fhir/erp/CodeSystem/GEM_ERP_CS_DocumentType"/>
                        <code value="3"/>
                        <display value="Receipt"/>
                    </coding>
                </type>
                <date value="2025-10-10T07:30:00.000+01:00"/>
                <author>
                    <reference value="urn:uuid:ab00c388-a494-4e7b-bbde-1361ad75c193"/>
                </author>
                <title value="Quittung"/>
                <event>
                    <period>
                        <start value="2025-10-10T07:30:00.000+01:00"/> <!-- Zeit der Quittungserstellung -->
                        <end value="2025-10-10T07:30:00.000+01:00"/> <!-- Zeit der Quittungserstellung -->
                    </period>
                </event>
                <section>
                    <entry>
                        <reference value="urn:uuid:42cc1a8f-b312-4b87-97d0-83dd89961480"/>
                    </entry>
                </section>
            </Composition>
        </resource>
    </entry>
    <entry>
        <fullUrl value="urn:uuid:ab00c388-a494-4e7b-bbde-1361ad75c193"/>
        <resource>
            <Device xmlns="http://hl7.org/fhir">
                <id value="ab00c388-a494-4e7b-bbde-1361ad75c193"/>
                <meta>
                    <profile value="https://gematik.de/fhir/erp/StructureDefinition/GEM_ERP_PR_Device|1.5"/>
                </meta>
                <status value="active"/>
                <serialNumber value="N/A"/> <!-- default -->
                <deviceName>
                    <name value="PS"/> <!-- default -->
                    <type value="other"/> <!-- default -->
                </deviceName>
                <version>
                    <value value="N/A"/> <!-- default -->
                </version>
            </Device>
        </resource>
    </entry>
    <entry>
        <fullUrl value="urn:uuid:42cc1a8f-b312-4b87-97d0-83dd89961480"/>
        <resource>
            <Binary xmlns="http://hl7.org/fhir">
                <id value="42cc1a8f-b312-4b87-97d0-83dd89961480"/>
                <meta>
                    <profile value="https://gematik.de/fhir/erp/StructureDefinition/GEM_ERP_PR_Digest|1.5"/>
                </meta>
                <contentType value="application/octet-stream"/>
                <data value="SGFzaCBkZXIgVmVyb3JudW5n"/>  <!-- Hash der Verordnung (ohne Signatur) -->
            </Binary>
        </resource>
    </entry>
    <signature>
        <type>
            <system value="urn:iso-astm:E1762-95:2013"/>
            <code value="1.2.840.10065.1.12.1.1"/>
        </type>
        <when value="2025-10-10T07:30:00.000+01:00"/>
        <who>
            <reference value="urn:uuid:ab00c388-a494-4e7b-bbde-1361ad75c193"/>
        </who>
        <sigFormat value="application/pkcs7-mime"/>
        <data value="U2lnbmF0dXIgZGVyIFF1aXR0dW5nIChvaG5lIHNpZ25hdHVyIEJsb2NrKQ=="/> <!-- Signatur über das QuittungBundle (ohne <signature> Block) -->
    </signature>
</Bundle>