<?xml version="1.0" encoding="UTF-8"?>
<Bundle xmlns="http://hl7.org/fhir">
  <id value="1730fb75-9a3b-40de-8d95-ddf2f6acc93e"/>
  <meta>
    <profile value="https://fhir.gkvsv.de/StructureDefinition/GKVSV_PR_TA7_Rechnung_Bundle|1.3"/>
    <tag>
      <display value="Beispiel der TA7/eAbrechnungsdaten."/>
    </tag>
    <tag>
      <display value="ACHTUNG! Der fachlich korrekte Inhalt der Beispielinstanz kann nicht gew채hrleistet werden. Wir sind jederzeit dankbar f체r Hinweise auf Fehler oder f체r Verbesserungsvorschl채ge."/>
    </tag>
  </meta>
  <identifier>
    <extension url="https://fhir.gkvsv.de/StructureDefinition/GKVSV_EX_ERP_TA7_Dateinummer">
      <valueString value="00001"/>
    </extension>
    <system value="https://fhir.gkvsv.de/NamingSystem/GKVSV_NS_Dateiname"/>
    <value value="ARZFHR21001"/>
  </identifier>
  <type value="collection"/>
  <timestamp value="2021-06-02T10:00:00Z"/>
  <entry>
    <fullUrl value="urn:uuid:b2328a38-ed42-47d4-bf2c-295556ea408d"/>
    <resource>
      <Composition>
        <id value="b2328a38-ed42-47d4-bf2c-295556ea408d"/>
        <meta>
          <profile value="https://fhir.gkvsv.de/StructureDefinition/GKVSV_PR_TA7_Rechnung_Composition|1.3"/>
        </meta>
        <extension url="https://fhir.gkvsv.de/StructureDefinition/GKVSV_EX_TA7_IK_Empfaenger">
          <valueIdentifier>
            <system value="http://fhir.de/sid/arge-ik/iknr"/>
            <value value="101575519"/>
          </valueIdentifier>
        </extension>
        <extension url="https://fhir.gkvsv.de/StructureDefinition/GKVSV_EX_TA7_IK_Kostentraeger">
          <valueIdentifier>
            <system value="http://fhir.de/sid/arge-ik/iknr"/>
            <value value="101575519"/>
          </valueIdentifier>
        </extension>
        <identifier>
          <system value="https://fhir.gkvsv.de/NamingSystem/GKVSV_NS_Rechnungsnummer"/>
          <value value="109777509-01-020621"/>
        </identifier>
        <status value="final"/>
        <type>
          <coding>
            <system value="https://fhir.gkvsv.de/CodeSystem/GKVSV_CS_ERP_Rechnungsart"/>
            <code value="6"/>
          </coding>
        </type>
        <date value="2021-05-31">
          <extension url="https://fhir.gkvsv.de/StructureDefinition/GKVSV_EX_ERP_TA7_Rechnungsdatum">
            <valueDateTime value="2021-06-02"/>
          </extension>
        </date>
        <author>
          <identifier>
            <system value="http://fhir.de/sid/arge-ik/iknr"/>
            <value value="987654321"/>
          </identifier>
        </author>
        <title value="elektronische Rechnung"/>
        <section>
          <code>
            <coding>
              <system value="https://fhir.gkvsv.de/CodeSystem/GKVSV_CS_ERP_TA7"/>
              <code value="LR"/>
            </coding>
          </code>
          <entry>
            <reference value="urn:uuid:ceecc4dd-8b8c-4a17-8fa1-b1b063821446"/>
          </entry>
        </section>
        <section>
          <code>
            <coding>
              <system value="https://fhir.gkvsv.de/CodeSystem/GKVSV_CS_ERP_TA7"/>
              <code value="RB"/>
              <display value="Rezept-Bundle"/>
            </coding>
          </code>
          <entry>
            <reference value="urn:uuid:e5c55b6e-215e-4052-8e21-5bbd9ba7d5af"/>
          </entry>
        </section>
      </Composition>
    </resource>
  </entry>
  <entry>
    <fullUrl value="urn:uuid:ceecc4dd-8b8c-4a17-8fa1-b1b063821446"/>
    <resource>
      <List>
        <id value="ceecc4dd-8b8c-4a17-8fa1-b1b063821446"/>
        <meta>
          <profile value="https://fhir.gkvsv.de/StructureDefinition/GKVSV_PR_TA7_Rechnung_List|1.3"/>
        </meta>
        <status value="current"/>
        <mode value="working"/>
        <entry>
          <item>
            <identifier>
              <system value="https://fhir.gkvsv.de/NamingSystem/GKVSV_NS_Dateiname"/>
              <value value="ARZFHR21001"/>
            </identifier>
          </item>
        </entry>
      </List>
    </resource>
  </entry>
  <entry>
    <fullUrl value="urn:uuid:e5c55b6e-215e-4052-8e21-5bbd9ba7d5af"/>
    <resource>
      <Bundle>
        <id value="e5c55b6e-215e-4052-8e21-5bbd9ba7d5af"/>
        <meta>
          <profile value="https://fhir.gkvsv.de/StructureDefinition/GKVSV_PR_TA7_RezeptBundle|1.3"/>
        </meta>
        <type value="collection"/>
        <entry>
          <link>
            <relation value="item"/>
            <url value="https://fhir.kbv.de/StructureDefinition/KBV_PR_ERP_Bundle"/>
          </link>
          <fullUrl value="urn:uuid:31e00cf5-e90a-4fc9-a438-1d98041483ff"/>
          <resource>
            <Binary>
              <id value="31e00cf5-e90a-4fc9-a438-1d98041483ff"/>
              <meta>
                <profile value="https://fhir.gkvsv.de/StructureDefinition/GKVSV_PR_Binary"/>
              </meta>
              <contentType value="application/pkcs7-mime"/>
              <data value="VmVyb3JkbnVuZ3NkYXRlbiBCZWlzcGllbCBFcnN0ZWxsdW5nIEJlaXNwaWVsIGVBYnJlY2hudW5nc2RhdGVu"/>
            </Binary>
          </resource>
        </entry>
        <entry>
          <link>
            <relation value="item"/>
            <url value="https://gematik.de/fhir/StructureDefinition/ErxReceipt"/>
          </link>
          <fullUrl value="urn:uuid:3370028b-ae75-4cc2-a251-5ec40cb8ef25"/>
          <resource>
            <Binary>
              <id value="3370028b-ae75-4cc2-a251-5ec40cb8ef25"/>
              <meta>
                <profile value="https://fhir.gkvsv.de/StructureDefinition/GKVSV_PR_Binary"/>
              </meta>
              <contentType value="application/pkcs7-mime"/>
              <data value="UXVpdHR1bmdzLUJlaXNwaWVsIEVyc3RlbGx1bmcgQmVpc3BpZWwgZUFicmVjaG51bmdzZGF0ZW4="/>
            </Binary>
          </resource>
        </entry>
        <entry>
          <link>
            <relation value="item"/>
            <url value="http://fhir.abda.de/eRezeptAbgabedaten/StructureDefinition/DAV-PR-ERP-AbgabedatenBundle"/>
          </link>
          <fullUrl value="urn:uuid:0124a84a-7792-4f13-8a39-dfb20176a399"/>
          <resource>
            <Binary>
              <id value="0124a84a-7792-4f13-8a39-dfb20176a399"/>
              <meta>
                <profile value="https://fhir.gkvsv.de/StructureDefinition/GKVSV_PR_Binary"/>
              </meta>
              <contentType value="application/pkcs7-mime"/>
              <data value="ZUFiZ2FiZWRhdGVuIEJlaXNwaWVsIEVyc3RlbGx1bmcgQmVpc3BpZWwgZUFicmVjaG51bmdzZGF0ZW4="/>
            </Binary>
          </resource>
        </entry>
        <entry>
          <link>
            <relation value="item"/>
            <url value="https://fhir.gkvsv.de/StructureDefinition/GKVSV_PR_ERP_eAbrechnungsdaten"/>
          </link>
          <fullUrl value="urn:uuid:acd37e98-2b59-42f0-b163-51cea0f6c1f8"/>
          <resource>
            <Invoice>
              <id value="acd37e98-2b59-42f0-b163-51cea0f6c1f8"/>
              <meta>
                <profile value="https://fhir.gkvsv.de/StructureDefinition/GKVSV_PR_ERP_eAbrechnungsdaten|1.3"/>
              </meta>
              <extension url="https://fhir.gkvsv.de/StructureDefinition/GKVSV_EX_ERP_Irrlaeufer">
                <valueBoolean value="false"/>
              </extension>
              <identifier>
                <system value="https://gematik.de/fhir/erp/NamingSystem/GEM_ERP_NS_PrescriptionId"/>
                <value value="160.100.000.000.010.12"/>
              </identifier>
              <identifier>
                <system value="https://fhir.gkvsv.de/NamingSystem/GKVSV_NS_Belegnummer"/>
                <value value="2105000000013456789"/>
              </identifier>
              <status value="issued"/>
              <issuer>
                <extension url="https://fhir.gkvsv.de/StructureDefinition/GKVSV_EX_ERP_LE_Sitz">
                  <valueCoding>
                    <system value="https://fhir.gkvsv.de/CodeSystem/GKVSV_CS_ERP_Leistungserbringer_Sitz"/>
                    <code value="1"/>
                  </valueCoding>
                </extension>
                <identifier>
                  <type>
                    <coding>
                      <system value="https://fhir.gkvsv.de/CodeSystem/GKVSV_CS_ERP_Leistungserbringertyp"/>
                      <code value="A"/>
                    </coding>
                  </type>
                  <system value="http://fhir.de/sid/arge-ik/iknr"/>
                  <value value="123456789"/>
                </identifier>
              </issuer>
              <lineItem>
                <extension url="https://fhir.gkvsv.de/StructureDefinition/GKVSV_EX_ERP_Positionstyp">
                  <valueCodeableConcept>
                    <coding>
                      <system value="https://fhir.gkvsv.de/CodeSystem/GKVSV_CS_ERP_Positionstyp"/>
                      <code value="0"/>
                      <display value="Nullposition"/>
                    </coding>
                  </valueCodeableConcept>
                </extension>
                <extension url="https://fhir.gkvsv.de/StructureDefinition/GKVSV_EX_ERP_VAT_VALUE">
                  <valueMoney>
                    <value value="2.42"/>
                    <currency value="EUR"/>
                  </valueMoney>
                </extension>
                <extension url="https://fhir.gkvsv.de/StructureDefinition/GKVSV_EX_ERP_Import">
                  <valueCodeableConcept>
                    <coding>
                      <system value="https://fhir.gkvsv.de/CodeSystem/GKVSV_CS_ERP_Import"/>
                      <code value="0"/>
                    </coding>
                  </valueCodeableConcept>
                </extension>
                <sequence value="1"/>
                <chargeItemCodeableConcept>
                  <coding>
                    <system value="http://terminology.hl7.org/CodeSystem/v3-NullFlavor"/>
                    <code value="UNC"/>
                  </coding>
                </chargeItemCodeableConcept>
                <priceComponent>
                  <type value="deduction"/>
                  <code>
                    <coding>
                      <system value="https://fhir.gkvsv.de/CodeSystem/GKVSV_CS_ERP_ZuAbschlagKey"/>
                      <code value="R001"/>
                    </coding>
                  </code>
                  <amount>
                    <value value="-1.77"/>
                    <currency value="EUR"/>
                  </amount>
                </priceComponent>
              </lineItem>
            </Invoice>
          </resource>
        </entry>
      </Bundle>
    </resource>
  </entry>
</Bundle>