<?xml version="1.0" encoding="UTF-8"?>
<Parameters xmlns="http://hl7.org/fhir">
    <id value="740ab771-d8dd-4926-92fd-1a35dc1f3c54"/>
    <meta>
        <profile value="https://gematik.de/fhir/erp/StructureDefinition/GEM_ERP_PR_PAR_CloseOperation_Input|1.5"/>
        <tag>
            <display value="Beispiel MedicationDispense PZN Bsp 35"/>
        </tag>
        <tag>
            <display value="ACHTUNG! Der fachlich korrekte Inhalt der Beispielinstanz kann nicht gew채hrleistet werden. Wir sind jederzeit dankbar f체r Hinweise auf Fehler oder f체r Verbesserungsvorschl채ge."/>
        </tag>
    </meta>
    <parameter>
        <name value="rxDispensation"/>
        <part>
            <name value="medicationDispense"/>
            <resource>
                <MedicationDispense>
                    <id value="262d0f19-52d8-4c91-bfc8-6bc603c52f2a"/>
                    <meta>
                        <profile value="https://gematik.de/fhir/erp/StructureDefinition/GEM_ERP_PR_MedicationDispense|1.5"/>
                    </meta>
                    <identifier>
                        <system value="https://gematik.de/fhir/erp/NamingSystem/GEM_ERP_NS_PrescriptionId"/>
                        <value value="160.035.438.401.903.04"/>
                    </identifier>
                    <status value="completed"/>
                    <medicationReference>
                        <reference value="urn:uuid:46f66f1c-7ac8-4b8f-8fc6-53731725be0b"/>
                    </medicationReference>
                    <subject>
                        <identifier>
                            <system value="http://fhir.de/sid/gkv/kvid-10"/>
                            <value value="S040464113"/>
                        </identifier>
                    </subject>
                    <performer>
                        <actor>
                            <identifier>
                                <system value="https://gematik.de/fhir/sid/telematik-id"/>
                                <value value="3-07.2.1234560000.10.789"/>
                            </identifier>
                        </actor>
                    </performer>
                    <quantity>
                        <value value="1"/>
                        <system value="http://unitsofmeasure.org"/>
                        <code value="{Package}"/>
                    </quantity>
                    <whenHandedOver value="2025-10-19"/>
                    <substitution>
                        <wasSubstituted value="false"/>
                    </substitution>
                </MedicationDispense>
            </resource>
        </part>
        <part>
            <name value="medication"/>
            <resource>
                <Medication>
                    <id value="46f66f1c-7ac8-4b8f-8fc6-53731725be0b"/>
                    <meta>
                        <profile value="https://gematik.de/fhir/erp/StructureDefinition/GEM_ERP_PR_Medication|1.5"/>
                    </meta>
                    <contained>
                        <Medication>
                            <id value="9c66984b-0856-4dbd-b2aa-f9611ec464cb"/>
                            <meta>
                                <profile value="https://gematik.de/fhir/epa-medication/StructureDefinition/epa-medication-pharmaceutical-product"/>
                            </meta>
                            <form>
                                <coding>
                                    <system value="https://fhir.kbv.de/CodeSystem/KBV_CS_SFHIR_KBV_DARREICHUNGSFORM"/>
                                    <code value="FTA"/>
                                    <display value="Filmtabletten"/>
                                </coding>
                            </form>
                            <ingredient>
                                <itemCodeableConcept>
                                    <text value="Chlormadinon acetat"/>
                                </itemCodeableConcept>
                                <strength>
                                    <numerator>
                                        <value value="2"/>
                                        <unit value="mg"/>
                                    </numerator>
                                    <denominator>
                                        <value value="1"/>
                                        <unit value="Filmtbl."/>
                                    </denominator>
                                </strength>
                            </ingredient>
                            <ingredient>
                                <itemCodeableConcept>
                                    <text value="Ethinylestradiol"/>
                                </itemCodeableConcept>
                                <strength>
                                    <numerator>
                                        <value value="0.03"/>
                                        <unit value="mg"/>
                                    </numerator>
                                    <denominator>
                                        <value value="1"/>
                                        <unit value="Filmtbl."/>
                                    </denominator>
                                </strength>
                            </ingredient>
                        </Medication>
                    </contained>
                    <contained>
                        <Medication>
                            <id value="a2c3435e-a2c3-44cb-8cf1-fd02f598250b"/>
                            <meta>
                                <profile value="https://gematik.de/fhir/epa-medication/StructureDefinition/epa-medication-pharmaceutical-product"/>
                            </meta>
                            <form>
                                <coding>
                                    <system value="https://fhir.kbv.de/CodeSystem/KBV_CS_SFHIR_KBV_DARREICHUNGSFORM"/>
                                    <code value="TAB"/>
                                    <display value="Tabletten"/>
                                </coding>
                            </form>
                            <ingredient>
                                <itemCodeableConcept>
                                    <text value="keine Angabe"/>
                                </itemCodeableConcept>
                                <strength>
                                    <numerator>
                                        <value value="0"/>
                                        <unit value="k.A."/>
                                    </numerator>
                                    <denominator>
                                        <value value="0"/>
                                        <unit value="k.A."/>
                                    </denominator>
                                </strength>
                            </ingredient>
                        </Medication>
                    </contained>
                    <code>
                        <coding>
                            <system value="http://fhir.de/CodeSystem/ifa/pzn"/>
                            <code value="09505144"/>
                        </coding>
                        <text value="BELARA 21+7 Filmtabletten"/>
                    </code>
                    <form>
                        <coding>
                            <system value="https://fhir.kbv.de/CodeSystem/KBV_CS_SFHIR_KBV_DARREICHUNGSFORM"/>
                            <code value="KPG"/>
                            <display value="Kombipackung"/>
                        </coding>
                    </form>
                    <amount>
                        <numerator>
                            <extension url="https://gematik.de/fhir/epa-medication/StructureDefinition/medication-packaging-size-extension">
                                <valueString value="1"/>
                            </extension>
                            <unit value="St"/>
                        </numerator>
                        <denominator>
                            <value value="1"/>
                        </denominator>
                    </amount>
                    <ingredient>
                        <itemReference>
                            <reference value="#9c66984b-0856-4dbd-b2aa-f9611ec464cb"/>
                        </itemReference>
                    </ingredient>
                    <ingredient>
                        <itemReference>
                            <reference value="#a2c3435e-a2c3-44cb-8cf1-fd02f598250b"/>
                        </itemReference>
                    </ingredient>
                    <batch>
                        <lotNumber value="A123456789-1"/>
                    </batch>
                </Medication>
            </resource>
        </part>
    </parameter>
</Parameters>