<Bundle xmlns="http://hl7.org/fhir">
  <id value="d6ffeb4e-a817-4202-bb81-d6b1eedb6f8c"/>
  <meta>
    <profile value="http://fhir.abda.de/eRezeptAbgabedaten/StructureDefinition/DAV-PR-ERP-AbgabedatenBundle|1.1.0"/>
    <tag>
      <display value="Beispiel für Abgabedaten für eine PZN-Verordnung (Unfall) (5a3458b0-8364-4682-96e2-b262b2ab16eb)"/>
    </tag>
    <tag>
      <display value="ACHTUNG! Der fachlich korrekte Inhalt der Beispielinstanz kann nicht gewährleistet werden. Wir sind jederzeit dankbar für Hinweise auf Fehler oder für Verbesserungsvorschläge."/>
    </tag>
  </meta>
  <identifier>
    <system value="https://gematik.de/fhir/NamingSystem/PrescriptionID"/>
    <value value="160.100.000.000.005.27"/>
  </identifier>
  <type value="document"/>
  <timestamp value="2021-05-27T10:00:00Z"/>
  <entry>
    <fullUrl value="urn:uuid:f1c82039-9000-4a57-b9dd-956b57147a87"/>
    <resource>
      <Composition>
        <id value="f1c82039-9000-4a57-b9dd-956b57147a87"/>
        <meta>
          <profile value="http://fhir.abda.de/eRezeptAbgabedaten/StructureDefinition/DAV-PR-ERP-AbgabedatenComposition|1.1.0"/>
        </meta>
        <status value="final"/>
        <type>
          <coding>
            <system value="http://fhir.abda.de/eRezeptAbgabedaten/CodeSystem/DAV-CS-ERP-CompositionTypes"/>
            <code value="ERezeptAbgabedaten"/>
          </coding>
        </type>
        <date value="2021-05-27T10:00:00Z"/>
        <author>
          <reference value="urn:uuid:e7d66816-51e6-4764-8093-61dd9c0ad35e"/>
        </author>
        <title value="ERezeptAbgabedaten"/>
        <section>
          <title value="Abgabeinformationen"/>
          <entry>
            <reference value="urn:uuid:105b0e8c-1cab-4cc4-afda-0d1233639792"/>
          </entry>
        </section>
        <section>
          <title value="Apotheke"/>
          <entry>
            <reference value="urn:uuid:e7d66816-51e6-4764-8093-61dd9c0ad35e"/>
          </entry>
        </section>
      </Composition>
    </resource>
  </entry>
  <entry>
    <fullUrl value="urn:uuid:e7d66816-51e6-4764-8093-61dd9c0ad35e"/>
    <resource>
      <Organization>
        <id value="e7d66816-51e6-4764-8093-61dd9c0ad35e"/>
        <meta>
          <profile value="http://fhir.abda.de/eRezeptAbgabedaten/StructureDefinition/DAV-PR-ERP-Apotheke|1.1.0"/>
        </meta>
        <identifier>
          <system value="http://fhir.de/NamingSystem/arge-ik/iknr"/>
          <value value="123456789"/>
        </identifier>
        <name value="CIDA-Apotheke"/>
        <address>
          <type value="physical"/>
          <line value="Schottener Weg 5">
            <extension url="http://hl7.org/fhir/StructureDefinition/iso21090-ADXP-streetName">
              <valueString value="Schottener Weg"/>
            </extension>
            <extension url="http://hl7.org/fhir/StructureDefinition/iso21090-ADXP-houseNumber">
              <valueString value="5"/>
            </extension>
          </line>
          <city value="Darmstadt"/>
          <postalCode value="64289"/>
          <country value="D"/>
        </address>
      </Organization>
    </resource>
  </entry>
  <entry>
    <fullUrl value="urn:uuid:105b0e8c-1cab-4cc4-afda-0d1233639792"/>
    <resource>
      <MedicationDispense>
        <id value="105b0e8c-1cab-4cc4-afda-0d1233639792"/>
        <meta>
          <profile value="http://fhir.abda.de/eRezeptAbgabedaten/StructureDefinition/DAV-PR-ERP-Abgabeinformationen|1.1.0"/>
        </meta>
        <extension url="http://fhir.abda.de/eRezeptAbgabedaten/StructureDefinition/DAV-EX-ERP-Abrechnungszeilen">
          <valueReference>
            <reference value="urn:uuid:9062e58e-c63c-47ab-ae15-ffaa1326603d"/>
          </valueReference>
        </extension>
        <status value="completed"/>
        <medicationCodeableConcept>
          <coding>
            <system value="http://terminology.hl7.org/CodeSystem/data-absent-reason"/>
            <code value="not-applicable"/>
          </coding>
        </medicationCodeableConcept>
        <performer>
          <actor>
            <reference value="urn:uuid:e7d66816-51e6-4764-8093-61dd9c0ad35e"/>
          </actor>
        </performer>
        <authorizingPrescription>
          <identifier>
            <system value="https://gematik.de/fhir/NamingSystem/PrescriptionID"/>
            <value value="160.100.000.000.005.27"/>
          </identifier>
        </authorizingPrescription>
        <type>
          <coding>
            <system value="http://fhir.abda.de/eRezeptAbgabedaten/CodeSystem/DAV-CS-ERP-MedicationDispenseTyp"/>
            <code value="Abgabeinformationen"/>
          </coding>
        </type>
        <whenHandedOver value="2021-05-27"/>
      </MedicationDispense>
    </resource>
  </entry>
  <entry>
    <fullUrl value="urn:uuid:9062e58e-c63c-47ab-ae15-ffaa1326603d"/>
    <resource>
      <Invoice>
        <id value="9062e58e-c63c-47ab-ae15-ffaa1326603d"/>
        <meta>
          <profile value="http://fhir.abda.de/eRezeptAbgabedaten/StructureDefinition/DAV-PR-ERP-Abrechnungszeilen|1.1.0"/>
        </meta>
        <status value="issued"/>
        <type>
          <coding>
            <system value="http://fhir.abda.de/eRezeptAbgabedaten/CodeSystem/DAV-CS-ERP-InvoiceTyp"/>
            <code value="Abrechnungszeilen"/>
          </coding>
        </type>
        <lineItem>
          <extension url="http://fhir.abda.de/eRezeptAbgabedaten/StructureDefinition/DAV-EX-ERP-Zusatzattribute">
            <extension url="ZusatzattributFAM">
              <extension url="Markt">
                <extension url="Schluessel">
                  <valueCodeableConcept>
                    <coding>
                      <system value="http://fhir.abda.de/eRezeptAbgabedaten/CodeSystem/DAV-CS-ERP-ZusatzattributFAMSchluesselMarkt"/>
                      <code value="1"/>
                    </coding>
                  </valueCodeableConcept>
                </extension>
                <extension url="Gruppe">
                  <valueCodeableConcept>
                    <coding>
                      <system value="http://fhir.abda.de/eRezeptAbgabedaten/CodeSystem/DAV-CS-ERP-ZusatzattributGruppe"/>
                      <code value="1"/>
                    </coding>
                  </valueCodeableConcept>
                </extension>
              </extension>
              <extension url="Rabattvertragserfuellung">
                <extension url="Gruppe">
                  <valueCodeableConcept>
                    <coding>
                      <system value="http://fhir.abda.de/eRezeptAbgabedaten/CodeSystem/DAV-CS-ERP-ZusatzattributGruppe"/>
                      <code value="2"/>
                    </coding>
                  </valueCodeableConcept>
                </extension>
                <extension url="Schluessel">
                  <valueCodeableConcept>
                    <coding>
                      <system value="http://fhir.abda.de/eRezeptAbgabedaten/CodeSystem/DAV-CS-ERP-ZusatzattributFAMSchluesselAbgaberangfolge"/>
                      <code value="1"/>
                    </coding>
                  </valueCodeableConcept>
                </extension>
              </extension>
              <extension url="PreisguenstigesFAM">
                <extension url="Gruppe">
                  <valueCodeableConcept>
                    <coding>
                      <system value="http://fhir.abda.de/eRezeptAbgabedaten/CodeSystem/DAV-CS-ERP-ZusatzattributGruppe"/>
                      <code value="3"/>
                    </coding>
                  </valueCodeableConcept>
                </extension>
                <extension url="Schluessel">
                  <valueCodeableConcept>
                    <coding>
                      <system value="http://fhir.abda.de/eRezeptAbgabedaten/CodeSystem/DAV-CS-ERP-ZusatzattributFAMSchluesselAbgaberangfolge"/>
                      <code value="0"/>
                    </coding>
                  </valueCodeableConcept>
                </extension>
              </extension>
              <extension url="ImportFAM">
                <extension url="Gruppe">
                  <valueCodeableConcept>
                    <coding>
                      <system value="http://fhir.abda.de/eRezeptAbgabedaten/CodeSystem/DAV-CS-ERP-ZusatzattributGruppe"/>
                      <code value="4"/>
                    </coding>
                  </valueCodeableConcept>
                </extension>
                <extension url="Schluessel">
                  <valueCodeableConcept>
                    <coding>
                      <system value="http://fhir.abda.de/eRezeptAbgabedaten/CodeSystem/DAV-CS-ERP-ZusatzattributFAMSchluesselAbgaberangfolge"/>
                      <code value="0"/>
                    </coding>
                  </valueCodeableConcept>
                </extension>
              </extension>
            </extension>
          </extension>
          <extension url="http://fhir.abda.de/eRezeptAbgabedaten/StructureDefinition/DAV-EX-ERP-Chargenbezeichnung">
            <valueString value="A123456789-1"/>
          </extension>
          <sequence value="1"/>
          <chargeItemCodeableConcept>
            <coding>
              <system value="http://fhir.de/CodeSystem/ifa/pzn"/>
              <code value="03507952"/>
            </coding>
          </chargeItemCodeableConcept>
          <priceComponent>
            <extension url="http://fhir.abda.de/eRezeptAbgabedaten/StructureDefinition/DAV-EX-ERP-MwStSatz">
              <valueDecimal value="19.00"/>
            </extension>
            <extension url="http://fhir.abda.de/eRezeptAbgabedaten/StructureDefinition/DAV-EX-ERP-KostenVersicherter">
              <extension url="Kategorie">
                <valueCodeableConcept>
                  <coding>
                    <system value="http://fhir.abda.de/eRezeptAbgabedaten/CodeSystem/DAV-CS-ERP-KostenVersicherterKategorie"/>
                    <code value="0"/>
                  </coding>
                </valueCodeableConcept>
              </extension>
              <extension url="Kostenbetrag">
                <valueMoney>
                  <value value="5.00"/>
                  <currency value="EUR"/>
                </valueMoney>
              </extension>
            </extension>
            <type value="informational"/>
            <factor value="1"/>
            <amount>
              <value value="16.33"/>
              <currency value="EUR"/>
            </amount>
          </priceComponent>
        </lineItem>
        <totalGross>
          <extension url="http://fhir.abda.de/eRezeptAbgabedaten/StructureDefinition/DAV-EX-ERP-Gesamtzuzahlung">
            <valueMoney>
              <value value="5.00"/>
              <currency value="EUR"/>
            </valueMoney>
          </extension>
          <value value="16.33"/>
          <currency value="EUR"/>
        </totalGross>
      </Invoice>
    </resource>
  </entry>
</Bundle>
