<?xml version="1.0" encoding="UTF-8"?>
<Bundle xmlns="http://hl7.org/fhir">
    <id value="0440160b-91b5-4e30-b3d7-e221143ecded"/>
    <meta>
        <profile value="https://fhir.kbv.de/StructureDefinition/KBV_PR_ERP_Bundle|1.2"/>
    </meta>
    <identifier>
        <system value="https://gematik.de/fhir/erp/NamingSystem/GEM_ERP_NS_PrescriptionId"/>
        <value value="920.003.229.860.604.32"/>
    </identifier>
    <type value="document"/>
    <timestamp value="2025-04-01T10:00:00Z"/>
    <entry>
        <fullUrl value="urn:uuid:7eae1bcd-e573-470b-b914-60d97699a15d"/>
        <resource>
            <Composition xmlns="http://hl7.org/fhir">
                <id value="7eae1bcd-e573-470b-b914-60d97699a15d"/>
                <meta>
                    <profile value="https://fhir.kbv.de/StructureDefinition/KBV_PR_ERP_Composition|1.2"/>
                </meta>
                <extension url="https://fhir.kbv.de/StructureDefinition/KBV_EX_FOR_Legal_basis">
                    <valueCoding>
                        <system value="https://fhir.kbv.de/CodeSystem/KBV_CS_SFHIR_KBV_STATUSKENNZEICHEN"/>
                        <code value="00"/>
                    </valueCoding>
                </extension>
                <status value="final"/>
                <type>
                    <coding>
                        <system value="https://fhir.kbv.de/CodeSystem/KBV_CS_SFHIR_KBV_FORMULAR_ART"/>
                        <code value="e16A"/>
                    </coding>
                </type>
                <subject>
                    <reference value="urn:uuid:7f1ecbf2-008b-40b6-9d27-f5b280949967"/>
                </subject>
                <date value="2025-04-01T10:00:00Z"/>
                <author>
                    <reference value="urn:uuid:94ef8f34-a24d-47d9-bd1e-68c720975109"/>
                    <type value="Practitioner"/>
                </author>
                <author>
                    <type value="Device"/>
                    <identifier>
                        <system value="https://fhir.kbv.de/NamingSystem/KBV_NS_FOR_Pruefnummer"/>
                        <value value="000000"/>
                    </identifier>
                </author>
                <title value="elektronische Arzneimittelverordnung"/>
                <custodian>
                    <reference value="urn:uuid:fc211b32-da5c-46e4-a293-fecb4f379b34"/>
                </custodian>
                <section>
                    <code>
                        <coding>
                            <system value="https://fhir.kbv.de/CodeSystem/KBV_CS_ERP_Section_Type"/>
                            <code value="Prescription"/>
                        </coding>
                    </code>
                    <entry>
                        <reference value="urn:uuid:9f11d479-ec00-4a62-865a-4817a5ccc90f"/>
                    </entry>
                </section>
                <section>
                    <code>
                        <coding>
                            <system value="https://fhir.kbv.de/CodeSystem/KBV_CS_ERP_Section_Type"/>
                            <code value="Coverage"/>
                        </coding>
                    </code>
                    <entry>
                        <reference value="urn:uuid:c1a8b04a-f981-4fe5-914d-b5d92562426b"/>
                    </entry>
                </section>
            </Composition>
        </resource>
    </entry>
    <entry>
        <fullUrl value="urn:uuid:9f11d479-ec00-4a62-865a-4817a5ccc90f"/>
        <resource>
            <MedicationRequest xmlns="http://hl7.org/fhir">
                <id value="9f11d479-ec00-4a62-865a-4817a5ccc90f"/>
                <meta>
                    <profile value="https://fhir.kbv.de/StructureDefinition/KBV_PR_ERP_Prescription|1.2"/>
                </meta>
                <extension url="https://fhir.kbv.de/StructureDefinition/KBV_EX_ERP_EmergencyServicesFee">
                    <valueBoolean value="false"/>
                </extension>
                <extension url="https://fhir.kbv.de/StructureDefinition/KBV_EX_FOR_SER">
                    <valueBoolean value="false"/>
                </extension>
                <extension url="https://fhir.kbv.de/StructureDefinition/KBV_EX_ERP_Multiple_Prescription">
                    <extension url="Kennzeichen">
                        <valueBoolean value="false"/>
                    </extension>
                </extension>
                <extension url="https://fhir.kbv.de/StructureDefinition/KBV_EX_FOR_StatusCoPayment">
                    <valueCoding>
                        <system value="https://fhir.kbv.de/CodeSystem/KBV_CS_FOR_StatusCoPayment"/>
                        <code value="1"/>
                    </valueCoding>
                </extension>
                <status value="active"/>
                <intent value="order"/>
                <medicationReference>
                    <reference value="urn:uuid:80304c7d-65ed-475c-9696-35e841937091"/>
                </medicationReference>
                <subject>
                    <reference value="urn:uuid:7f1ecbf2-008b-40b6-9d27-f5b280949967"/>
                </subject>
                <authoredOn value="2025-04-01"/>
                <requester>
                    <reference value="urn:uuid:94ef8f34-a24d-47d9-bd1e-68c720975109"/>
                </requester>
                <insurance>
                    <reference value="urn:uuid:c1a8b04a-f981-4fe5-914d-b5d92562426b"/>
                </insurance>
                <dispenseRequest>
                    <quantity>
                        <value value="1"/>
                        <unit value="Packung"/>
                    </quantity>
                </dispenseRequest>
                <substitution>
                    <allowedBoolean value="false"/>
                </substitution>
            </MedicationRequest>
        </resource>
    </entry>
    <entry>
        <fullUrl value="urn:uuid:80304c7d-65ed-475c-9696-35e841937091"/>
        <resource>
            <Medication xmlns="http://hl7.org/fhir">
                <id value="80304c7d-65ed-475c-9696-35e841937091"/>
                <meta>
                    <profile value="https://fhir.kbv.de/StructureDefinition/KBV_PR_ERP_Medication_PZN|1.2"/>
                </meta>
                <extension url="https://fhir.kbv.de/StructureDefinition/KBV_EX_Base_Medication_Type">
                    <valueCodeableConcept>
                        <coding>
                            <system value="http://snomed.info/sct"/>
                            <version value="http://snomed.info/sct/11000274103/version/20240515"/>
                            <code value="763158003"/>
                            <display value="Medicinal product (product)"/>
                        </coding>
                    </valueCodeableConcept>
                </extension>
                <extension url="https://fhir.kbv.de/StructureDefinition/KBV_EX_ERP_Medication_Category">
                    <valueCoding>
                        <system value="https://fhir.kbv.de/CodeSystem/KBV_CS_ERP_Medication_Category"/>
                        <code value="00"/>
                    </valueCoding>
                </extension>
                <extension url="https://fhir.kbv.de/StructureDefinition/KBV_EX_ERP_Medication_Vaccine">
                    <valueBoolean value="false"/>
                </extension>
                <code>
                    <coding>
                        <system value="http://fhir.de/CodeSystem/ifa/pzn"/>
                        <code value="18230769"/>
                    </coding>
                    <text value="FLUAD Tetra 2023/2024 1x0,5 ml"/>
                </code>
                <form>
                    <coding>
                        <system value="https://fhir.kbv.de/CodeSystem/KBV_CS_SFHIR_KBV_DARREICHUNGSFORM"/>
                        <code value="---"/>
                    </coding>
                </form>
                <amount>
                    <numerator>
                        <extension url="https://fhir.kbv.de/StructureDefinition/KBV_EX_ERP_Medication_PackagingSize">
                            <valueString value="1" />
                        </extension>
                        <unit value="St"/>
                    </numerator>
                    <denominator>
                        <value value="1"/>
                    </denominator>
                </amount>
                <ingredient>
                    <itemCodeableConcept>
                        <text value="FLUAD Tetra" />
                    </itemCodeableConcept>
                    <strength>
                        <numerator>
                            <value value="1" />
                            <unit value="St" />
                        </numerator>
                        <denominator>
                            <value value="1" />
                        </denominator>
                    </strength>
                </ingredient>
            </Medication>
        </resource>
    </entry>
    <entry>
        <fullUrl value="urn:uuid:7f1ecbf2-008b-40b6-9d27-f5b280949967"/>
        <resource>
            <Patient xmlns="http://hl7.org/fhir">
                <id value="7f1ecbf2-008b-40b6-9d27-f5b280949967"/>
                <meta>
                    <profile value="https://fhir.kbv.de/StructureDefinition/KBV_PR_FOR_Patient|1.2"/>
                </meta>
                <identifier>
                    <type>
                        <coding>
                            <system value="http://fhir.de/CodeSystem/identifier-type-de-basis"/>
                            <code value="KVZ10"/>
                        </coding>
                    </type>
                    <system value="http://fhir.de/sid/gkv/kvid-10"/>
                    <value value="T555558879"/>
                </identifier>
                <name>
                    <use value="official"/>
                    <family value="TK-Mustermann">
                        <extension url="http://hl7.org/fhir/StructureDefinition/humanname-own-name">
                            <valueString value="TK-Mustermann"/>
                        </extension>
                    </family>
                    <given value="Max"/>
                </name>
                <birthDate value="1995-01-01"/>
                <address>
                    <type value="both"/>
                    <line value="Bramfelder Str. 140">
                        <extension url="http://hl7.org/fhir/StructureDefinition/iso21090-ADXP-houseNumber">
                            <valueString value="140"/>
                        </extension>
                        <extension url="http://hl7.org/fhir/StructureDefinition/iso21090-ADXP-streetName">
                            <valueString value="Bramfelder Str."/>
                        </extension>
                    </line>
                    <city value="Hamburg"/>
                    <postalCode value="22305"/>
                    <country value="D"/>
                </address>
            </Patient>
        </resource>
    </entry>
    <entry>
        <fullUrl value="urn:uuid:94ef8f34-a24d-47d9-bd1e-68c720975109"/>
        <resource>
            <Practitioner xmlns="http://hl7.org/fhir">
                <id value="94ef8f34-a24d-47d9-bd1e-68c720975109"/>
                <meta>
                    <profile value="https://fhir.kbv.de/StructureDefinition/KBV_PR_FOR_Practitioner|1.2"/>
                </meta>
                <identifier>
                    <type>
                        <coding>
                            <system value="http://terminology.hl7.org/CodeSystem/v2-0203"/>
                            <code value="LANR"/>
                        </coding>
                    </type>
                    <system value="https://fhir.kbv.de/NamingSystem/KBV_NS_Base_ANR"/>
                    <value value="000000000"/>
                </identifier>
                <name>
                    <use value="official"/>
                    <family value="Apo">
                        <extension url="http://hl7.org/fhir/StructureDefinition/humanname-own-name">
                            <valueString value="Apo"/>
                        </extension>
                    </family>
                    <given value="Apo"/>
                </name>
                <qualification>
                    <code>
                        <coding>
                            <system value="https://fhir.kbv.de/CodeSystem/KBV_CS_FOR_Qualification_Type"/>
                            <code value="00"/>
                        </coding>
                    </code>
                </qualification>
                <qualification>
                    <code>
                        <coding>
                            <system value="https://fhir.kbv.de/CodeSystem/KBV_CS_FOR_Berufsbezeichnung"/>
                            <code value="Berufsbezeichnung"/>
                        </coding>
                        <text value="Apo"/>
                    </code>
                </qualification>
            </Practitioner>
        </resource>
    </entry>
    <entry>
        <fullUrl value="urn:uuid:fc211b32-da5c-46e4-a293-fecb4f379b34"/>
        <resource>
            <Organization xmlns="http://hl7.org/fhir">
                <id value="fc211b32-da5c-46e4-a293-fecb4f379b34"/>
                <meta>
                    <profile value="https://fhir.kbv.de/StructureDefinition/KBV_PR_FOR_Organization|1.2"/>
                </meta>
                <identifier>
                    <type>
                        <coding>
                            <system value="http://terminology.hl7.org/CodeSystem/v2-0203"/>
                            <code value="BSNR"/>
                        </coding>
                    </type>
                    <system value="https://fhir.kbv.de/NamingSystem/KBV_NS_Base_BSNR"/>
                    <value value="000000000"/>
                </identifier>
                <telecom>
                    <system value="phone"/>
                    <value value="Apo"/>
                </telecom>
                <address>
                    <type value="both"/>
                    <line value="Apo Apo">
                        <extension url="http://hl7.org/fhir/StructureDefinition/iso21090-ADXP-streetName">
                            <valueString value="Apo"/> <!-- ID 66 default Apo -->
                        </extension>
                        <extension url="http://hl7.org/fhir/StructureDefinition/iso21090-ADXP-houseNumber">
                            <valueString value="Apo"/> <!-- ID 67 default Apo -->
                        </extension>
                    </line>
                    <city value="Apo"/> <!-- ID 65 default Apo -->
                    <country value="D"/>
                </address>
            </Organization>
        </resource>
    </entry>
    <entry>
        <fullUrl value="urn:uuid:c1a8b04a-f981-4fe5-914d-b5d92562426b"/>
        <resource>
            <Coverage xmlns="http://hl7.org/fhir">
                <id value="c1a8b04a-f981-4fe5-914d-b5d92562426b"/>
                <meta>
                    <profile value="https://fhir.kbv.de/StructureDefinition/KBV_PR_FOR_Coverage|1.2"/>
                </meta>
                <extension url="http://fhir.de/StructureDefinition/gkv/besondere-personengruppe">
                    <valueCoding>
                        <system value="https://fhir.kbv.de/CodeSystem/KBV_CS_SFHIR_KBV_PERSONENGRUPPE"/>
                        <code value="00"/>
                    </valueCoding>
                </extension>
                <extension url="http://fhir.de/StructureDefinition/gkv/dmp-kennzeichen">
                    <valueCoding>
                        <system value="https://fhir.kbv.de/CodeSystem/KBV_CS_SFHIR_KBV_DMP"/>
                        <code value="00"/>
                    </valueCoding>
                </extension>
                <extension url="http://fhir.de/StructureDefinition/gkv/versichertenart">
                    <valueCoding>
                        <system value="https://fhir.kbv.de/CodeSystem/KBV_CS_SFHIR_KBV_VERSICHERTENSTATUS"/>
                        <code value="1"/>
                    </valueCoding>
                </extension>
                <status value="active"/>
                <type>
                    <coding>
                        <system value="http://fhir.de/CodeSystem/versicherungsart-de-basis"/>
                        <code value="GKV"/>
                    </coding>
                </type>
                <beneficiary>
                    <reference value="urn:uuid:7f1ecbf2-008b-40b6-9d27-f5b280949967"/>
                </beneficiary>
                <payor>
                    <identifier>
                        <system value="http://fhir.de/sid/arge-ik/iknr"/>
                        <value value="101575519"/>
                    </identifier>
                    <display value="Techniker Krankenkasse"/>
                </payor>
            </Coverage>
        </resource>
    </entry>
</Bundle>