<Bundle xmlns="http://hl7.org/fhir">
   <id value="2d1963c4-3bbf-4574-bfce-ce7c64bc6a21"/>
   <meta>
       <profile value="https://gematik.de/fhir/erp/StructureDefinition/GEM_ERP_PR_Bundle|1.4"/>
   </meta>
   <identifier>
       <system value="https://gematik.de/fhir/erp/NamingSystem/GEM_ERP_NS_PrescriptionId"/>
       <value value="920.014.273.159.749.96"/>
   </identifier>
   <type value="document"/>
   <timestamp value="2025-04-01T09:00:00.000+01:00"/>
   <entry>
       <fullUrl value="urn:uuid:9403ea90-d1ca-4316-a21d-d99ff0f54f0c"/>
       <resource>
           <Composition xmlns="http://hl7.org/fhir">
               <meta>
                   <profile value="https://gematik.de/fhir/erp/StructureDefinition/GEM_ERP_PR_Composition|1.4"/>
               </meta>
               <extension url="https://gematik.de/fhir/erp/StructureDefinition/GEM_ERP_EX_Beneficiary">
                   <valueIdentifier>
                       <system value="https://gematik.de/fhir/sid/telematik-id"/>
                       <value value="3-SMC-B-Testkarte-883110000116873"/> <!-- Apotheken Telematik-ID -->
                   </valueIdentifier>
               </extension>
               <status value="final"/>
               <type>
                   <coding>
                       <system value="https://gematik.de/fhir/erp/CodeSystem/GEM_ERP_CS_DocumentType"/>
                       <code value="3"/>
                       <display value="Receipt"/>
                   </coding>
               </type>
               <date value="2025-04-01T09:00:00.000+01:00"/>
               <author>
                   <reference value="urn:uuid:d4e637a0-33c6-4dc4-9ed8-5f2048bf6016"/>
               </author>
               <title value="Quittung"/>
               <event>
                   <period>
                       <start value="2025-04-01T09:00:00.000+01:00"/> <!-- Zeit der Quittungserstellung -->
                       <end value="2025-04-01T09:00:00.000+01:00"/> <!-- Zeit der Quittungserstellung -->
                   </period>
               </event>
               <section>
                   <entry>
                       <reference value="urn:uuid:eefb2a3c-d27d-41ef-86a6-5a4b21c93bcc"/>
                   </entry>
               </section>
           </Composition>
       </resource>
   </entry>
   <entry>
       <fullUrl value="urn:uuid:d4e637a0-33c6-4dc4-9ed8-5f2048bf6016"/>
       <resource>
           <Device xmlns="http://hl7.org/fhir">
               <id value="d4e637a0-33c6-4dc4-9ed8-5f2048bf6016"/>
               <meta>
                   <profile value="https://gematik.de/fhir/erp/StructureDefinition/GEM_ERP_PR_Device|1.4"/>
               </meta>
               <status value="active"/>
               <serialNumber value="N/A"/> <!-- default -->
               <deviceName>
                   <name value="PS"/> <!-- default -->
                   <type value="other"/> <!-- default -->
               </deviceName>
               <version>
                   <value value="N/A"/> <!-- default -->
               </version>
           </Device>
       </resource>
   </entry>
   <entry>
       <fullUrl value="urn:uuid:eefb2a3c-d27d-41ef-86a6-5a4b21c93bcc"/>
       <resource>
           <Binary xmlns="http://hl7.org/fhir">
               <id value="eefb2a3c-d27d-41ef-86a6-5a4b21c93bcc"/>
               <meta>
                   <profile value="https://gematik.de/fhir/erp/StructureDefinition/GEM_ERP_PR_Digest|1.4"/>
               </meta>
               <contentType value="application/octet-stream"/>
               <data value="SGFzaCBkZXIgVmVyb3JudW5n"/>  <!-- Hash der Verordnung (ohne Signatur) -->
           </Binary>
       </resource>
   </entry>
   <signature>
       <type>
           <system value="urn:iso-astm:E1762-95:2013"/>
           <code value="1.2.840.10065.1.12.1.1"/>
       </type>
       <when value="2025-04-01T09:00:00.000+01:00"/>
       <who>
           <reference value="urn:uuid:d4e637a0-33c6-4dc4-9ed8-5f2048bf6016"/>
       </who>
       <sigFormat value="application/pkcs7-mime"/>
       <data value="U2lnbmF0dXIgZGVyIFF1aXR0dW5nIChvaG5lIHNpZ25hdHVyIEJsb2NrKQ=="/> <!-- Signatur über das QuittungBundle (ohne <signature> Block) -->
   </signature>
</Bundle>