<?xml version="1.0" encoding="UTF-8"?>
<Bundle xmlns="http://hl7.org/fhir">
   <id value="f2f93dac-26a6-47c1-9b90-de8ca129a771"/>
   <meta>
      <profile value="https://fhir.gkvsv.de/StructureDefinition/GKVSV_PR_TA7_Rechnung_Bundle|1.3"/>
   </meta>
   <identifier>
      <extension url="https://fhir.gkvsv.de/StructureDefinition/GKVSV_EX_ERP_TA7_Dateinummer">
         <valueString value="00003"/>
      </extension>
      <system value="https://fhir.gkvsv.de/NamingSystem/GKVSV_NS_Dateiname"/>
      <value value="ARZFHR23003"/>
   </identifier>
   <type value="collection"/>
   <timestamp value="2023-11-04T10:00:00Z"/>
   <entry>
      <fullUrl value="urn:uuid:da572362-6a88-4d0e-9fda-9ed76f80c446"/>
      <resource>
         <Composition>
            <id value="da572362-6a88-4d0e-9fda-9ed76f80c446"/>
            <meta>
               <profile value="https://fhir.gkvsv.de/StructureDefinition/GKVSV_PR_TA7_Rechnung_Composition|1.3"/>
            </meta>
            <extension url="https://fhir.gkvsv.de/StructureDefinition/GKVSV_EX_TA7_IK_Empfaenger">
               <valueIdentifier>
                  <system value="http://fhir.de/sid/arge-ik/iknr"/>
                  <value value="101575519"/>
               </valueIdentifier>
            </extension>
            <extension url="https://fhir.gkvsv.de/StructureDefinition/GKVSV_EX_TA7_IK_Kostentraeger">
               <valueIdentifier>
                  <system value="http://fhir.de/sid/arge-ik/iknr"/>
                  <value value="101575519"/>
               </valueIdentifier>
            </extension>
            <identifier>
               <system value="https://fhir.gkvsv.de/NamingSystem/GKVSV_NS_Rechnungsnummer"/>
               <value value="109777509-03-041123"/>
            </identifier>
            <status value="final"/>
            <type>
               <coding>
                  <system value="https://fhir.gkvsv.de/CodeSystem/GKVSV_CS_ERP_Rechnungsart"/>
                  <code value="6"/>
               </coding>
            </type>
            <date value="2023-10-31">
               <extension url="https://fhir.gkvsv.de/StructureDefinition/GKVSV_EX_ERP_TA7_Rechnungsdatum">
                  <valueDateTime value="2023-11-04"/>
               </extension>
            </date>
            <author>
               <identifier>
                  <system value="http://fhir.de/sid/arge-ik/iknr"/>
                  <value value="987654321"/>
               </identifier>
            </author>
            <title value="elektronische Rechnung"/>
            <section>
               <code>
                  <coding>
                     <system value="https://fhir.gkvsv.de/CodeSystem/GKVSV_CS_ERP_TA7"/>
                     <code value="LR"/>
                  </coding>
               </code>
               <entry>
                  <reference value="urn:uuid:8d43f5cb-c79d-4feb-8316-e37c48486e17"/>
               </entry>
            </section>
            <section>
               <code>
                  <coding>
                     <system value="https://fhir.gkvsv.de/CodeSystem/GKVSV_CS_ERP_TA7"/>
                     <code value="RB"/>
                     <display value="Rezept-Bundle"/>
                  </coding>
               </code>
               <entry>
                  <reference value="urn:uuid:05eb23e3-0729-4430-bad7-48e3ade5bcea"/>
               </entry>
            </section>
         </Composition>
      </resource>
   </entry>
   <entry>
      <fullUrl value="urn:uuid:8d43f5cb-c79d-4feb-8316-e37c48486e17"/>
      <resource>
         <List>
            <id value="8d43f5cb-c79d-4feb-8316-e37c48486e17"/>
            <meta>
               <profile value="https://fhir.gkvsv.de/StructureDefinition/GKVSV_PR_TA7_Rechnung_List|1.3"/>
            </meta>
            <status value="current"/>
            <mode value="working"/>
            <entry>
               <item>
                  <identifier>
                     <system value="https://fhir.gkvsv.de/NamingSystem/GKVSV_NS_Dateiname"/>
                     <value value="ARZFHR23003"/>
                  </identifier>
               </item>
            </entry>
         </List>
      </resource>
   </entry>
   <entry>
      <fullUrl value="urn:uuid:05eb23e3-0729-4430-bad7-48e3ade5bcea"/>
      <resource>
         <Bundle>
            <id value="05eb23e3-0729-4430-bad7-48e3ade5bcea"/>
            <meta>
               <profile value="https://fhir.gkvsv.de/StructureDefinition/GKVSV_PR_TA7_RezeptBundle|1.3"/>
            </meta>
            <type value="collection"/>
            <entry>
               <link>
                  <relation value="item"/>
                  <url value="https://fhir.kbv.de/StructureDefinition/KBV_PR_ERP_Bundle"/>
               </link>
               <fullUrl value="urn:uuid:fa687b23-82b5-49ab-be77-41bf9b74f77f"/>
               <resource>
                  <Binary>
                     <id value="fa687b23-82b5-49ab-be77-41bf9b74f77f"/>
                     <meta>
                        <profile value="https://fhir.gkvsv.de/StructureDefinition/GKVSV_PR_Binary|1.3"/>
                     </meta>
                     <contentType value="application/pkcs7-mime"/>
                     <data value=""/>
                  </Binary>
               </resource>
            </entry>
            <entry>
               <link>
                  <relation value="item"/>
                  <url value="https://gematik.de/fhir/StructureDefinition/ErxReceipt"/>
               </link>
               <fullUrl value="urn:uuid:449554bd-a3f7-40a7-9e14-7e08c6cd3736"/>
               <resource>
                  <Binary>
                     <id value="449554bd-a3f7-40a7-9e14-7e08c6cd3736"/>
                     <meta>
                        <profile value="https://fhir.gkvsv.de/StructureDefinition/GKVSV_PR_Binary|1.3"/>
                     </meta>
                     <contentType value="application/pkcs7-mime"/>
                     <data value=""/>
                  </Binary>
               </resource>
            </entry>
            <entry>
               <link>
                  <relation value="item"/>
                  <url value="http://fhir.abda.de/eRezeptAbgabedaten/StructureDefinition/DAV-PR-ERP-AbgabedatenBundle"/>
               </link>
               <fullUrl value="urn:uuid:6a976d2b-a4fd-4e27-82f3-e753ac79599a"/>
               <resource>
                  <Binary>
                     <id value="6a976d2b-a4fd-4e27-82f3-e753ac79599a"/>
                     <meta>
                        <profile value="https://fhir.gkvsv.de/StructureDefinition/GKVSV_PR_Binary|1.3"/>
                     </meta>
                     <contentType value="application/pkcs7-mime"/>
                     <data value=""/>
                  </Binary>
               </resource>
            </entry>
            <entry>
               <link>
                  <relation value="item"/>
                  <url value="https://fhir.gkvsv.de/StructureDefinition/GKVSV_PR_ERP_eAbrechnungsdaten"/>
               </link>
               <fullUrl value="urn:uuid:7ca83717-e1d4-4fea-99d5-3d56bb7ced1a"/>
               <resource>
                  <Invoice>
                     <id value="7ca83717-e1d4-4fea-99d5-3d56bb7ced1a"/>
                     <meta>
                        <profile value="https://fhir.gkvsv.de/StructureDefinition/GKVSV_PR_ERP_eAbrechnungsdaten|1.3"/>
                     </meta>
                     <extension url="https://fhir.gkvsv.de/StructureDefinition/GKVSV_EX_ERP_Irrlaeufer">
                        <valueBoolean value="false"/>
                     </extension>
                     <identifier>
                        <system value="https://gematik.de/fhir/erp/NamingSystem/GEM_ERP_NS_PrescriptionId"/>
                        <value value="160.000.000.000.021.91"/>
                     </identifier>
                     <identifier>
                        <system value="https://fhir.gkvsv.de/NamingSystem/GKVSV_NS_Belegnummer"/>
                        <value value="2310000000187654321"/>
                     </identifier>
                     <status value="issued"/>
                     <issuer>
                        <extension url="https://fhir.gkvsv.de/StructureDefinition/GKVSV_EX_ERP_LE_Sitz">
                           <valueCoding>
                              <system value="https://fhir.gkvsv.de/CodeSystem/GKVSV_CS_ERP_Leistungserbringer_Sitz"/>
                              <code value="1"/>
                           </valueCoding>
                        </extension>
                        <identifier>
                           <type>
                              <coding>
                                 <system value="https://fhir.gkvsv.de/CodeSystem/GKVSV_CS_ERP_Leistungserbringertyp"/>
                                 <code value="A"/>
                              </coding>
                           </type>
                           <system value="http://fhir.de/sid/arge-ik/iknr"/>
                           <value value="308412345"/>
                        </identifier>
                     </issuer>
                     <lineItem>
                        <extension url="https://fhir.gkvsv.de/StructureDefinition/GKVSV_EX_ERP_Positionstyp">
                           <valueCodeableConcept>
                              <coding>
                                 <system value="https://fhir.gkvsv.de/CodeSystem/GKVSV_CS_ERP_Positionstyp"/>
                                 <code value="0"/>
                                 <display value="Nullposition"/>
                              </coding>
                           </valueCodeableConcept>
                        </extension>
                        <extension url="https://fhir.gkvsv.de/StructureDefinition/GKVSV_EX_ERP_VAT_VALUE">
                           <valueMoney>
                              <value value="2.42"/>
                              <currency value="EUR"/>
                           </valueMoney>
                        </extension>
                        <extension url="https://fhir.gkvsv.de/StructureDefinition/GKVSV_EX_ERP_Import">
                           <valueCodeableConcept>
                              <coding>
                                 <system value="https://fhir.gkvsv.de/CodeSystem/GKVSV_CS_ERP_Import"/>
                                 <code value="0"/>
                              </coding>
                           </valueCodeableConcept>
                        </extension>
                        <sequence value="1"/>
                        <chargeItemCodeableConcept>
                           <coding>
                              <system value="http://terminology.hl7.org/CodeSystem/v3-NullFlavor"/>
                              <code value="UNC"/>
                           </coding>
                        </chargeItemCodeableConcept>
                        <priceComponent>
                           <type value="deduction"/>
                           <code>
                              <coding>
                                 <system value="https://fhir.gkvsv.de/CodeSystem/GKVSV_CS_ERP_ZuAbschlagKey"/>
                                 <code value="R001"/>
                              </coding>
                           </code>
                           <amount>
                              <value value="-1.77"/>
                              <currency value="EUR"/>
                           </amount>
                        </priceComponent>
                     </lineItem>
                  </Invoice>
               </resource>
            </entry>
         </Bundle>
      </resource>
   </entry>
</Bundle>
