<?xml version="1.0" encoding="UTF-8"?>
<Bundle xmlns="http://hl7.org/fhir">
   <id value="5aa07810-3abf-4f00-aca8-fe302fffcc57"/>
   <meta>
      <profile value="https://fhir.gkvsv.de/StructureDefinition/GKVSV_PR_TA7_Rechnung_Bundle|1.4"/>
   </meta>
   <identifier>
      <extension url="https://fhir.gkvsv.de/StructureDefinition/GKVSV_EX_ERP_TA7_Dateinummer">
         <valueString value="00002"/>
      </extension>
      <system value="https://fhir.gkvsv.de/NamingSystem/GKVSV_NS_Dateiname"/>
      <value value="B00FHR24002"/>
   </identifier>
   <type value="document"/>
   <timestamp value="2024-12-02T10:00:00Z"/>
   <entry>
      <fullUrl value="urn:uuid:af68064d-1a8b-4b04-91d6-0f3d2f46310e"/>
      <resource>
         <Composition>
            <id value="af68064d-1a8b-4b04-91d6-0f3d2f46310e"/>
            <meta>
               <profile value="https://fhir.gkvsv.de/StructureDefinition/GKVSV_PR_TA7_Rechnung_Composition|1.4"/>
            </meta>
            <extension url="https://fhir.gkvsv.de/StructureDefinition/GKVSV_EX_TA7_IK_Empfaenger">
               <valueIdentifier>
                  <system value="http://fhir.de/sid/arge-ik/iknr"/>
                  <value value="108310400"/>
               </valueIdentifier>
            </extension>
            <extension url="https://fhir.gkvsv.de/StructureDefinition/GKVSV_EX_TA7_IK_Kostentraeger">
               <valueIdentifier>
                  <system value="http://fhir.de/sid/arge-ik/iknr"/>
                  <value value="108310400"/>
               </valueIdentifier>
            </extension>
            <identifier>
               <system value="https://fhir.gkvsv.de/NamingSystem/GKVSV_NS_Rechnungsnummer"/>
               <value value="104212506-01-020823"/>
            </identifier>
            <status value="final"/>
            <type>
               <coding>
                  <system value="https://fhir.gkvsv.de/CodeSystem/GKVSV_CS_ERP_Rechnungsart"/>
                  <code value="6"/>
               </coding>
            </type>
            <date value="2025-01-31">
               <extension url="https://fhir.gkvsv.de/StructureDefinition/GKVSV_EX_ERP_TA7_Rechnungsdatum">
                  <valueDateTime value="2024-12-02"/>
               </extension>
            </date>
            <author>
               <identifier>
                  <system value="http://fhir.de/sid/arge-ik/iknr"/>
                  <value value="987654321"/>
               </identifier>
            </author>
            <title value="elektronische Rechnung"/>
            <section>
               <code>
                  <coding>
                     <system value="https://fhir.gkvsv.de/CodeSystem/GKVSV_CS_ERP_TA7"/>
                     <code value="LR"/>
                  </coding>
               </code>
               <entry>
                  <reference value="urn:uuid:0f0e5fa9-209c-4037-be5f-d94aab1b5241"/>
               </entry>
            </section>
            <section>
               <code>
                  <coding>
                     <system value="https://fhir.gkvsv.de/CodeSystem/GKVSV_CS_ERP_TA7"/>
                     <code value="RB"/>
                     <display value="Rezept-Bundle"/>
                  </coding>
               </code>
               <entry>
                  <reference value="urn:uuid:f6bd57e3-2baf-45bb-8b21-8456e3866a4d"/>
               </entry>
            </section>
         </Composition>
      </resource>
   </entry>
   <entry>
      <fullUrl value="urn:uuid:0f0e5fa9-209c-4037-be5f-d94aab1b5241"/>
      <resource>
         <List>
            <id value="0f0e5fa9-209c-4037-be5f-d94aab1b5241"/>
            <meta>
               <profile value="https://fhir.gkvsv.de/StructureDefinition/GKVSV_PR_TA7_Rechnung_List|1.4"/>
            </meta>
            <status value="current"/>
            <mode value="working"/>
            <entry>
               <item>
                  <identifier>
                     <system value="https://fhir.gkvsv.de/NamingSystem/GKVSV_NS_Dateiname"/>
                     <value value="B00FHR24002"/>
                  </identifier>
               </item>
            </entry>
         </List>
      </resource>
   </entry>
   <entry>
      <fullUrl value="urn:uuid:f6bd57e3-2baf-45bb-8b21-8456e3866a4d"/>
      <resource>
         <Bundle>
            <id value="f6bd57e3-2baf-45bb-8b21-8456e3866a4d"/>
            <meta>
               <profile value="https://fhir.gkvsv.de/StructureDefinition/GKVSV_PR_TA7_RezeptBundle|1.4"/>
            </meta>
            <type value="collection"/>
            <entry>
               <link>
                  <relation value="item"/>
                  <url value="https://fhir.kbv.de/StructureDefinition/KBV_PR_ERP_Bundle"/>
               </link>
               <fullUrl value="urn:uuid:8352f9fd-275f-4330-836e-f4b07186438a"/>
               <resource>
                  <Binary>
                     <id value="8352f9fd-275f-4330-836e-f4b07186438a"/>
                     <meta>
                        <profile value="https://fhir.gkvsv.de/StructureDefinition/GKVSV_PR_Binary|1.4"/>
                     </meta>
                     <contentType value="application/pkcs7-mime"/>
                     <data value=""/>
                  </Binary>
               </resource>
            </entry>
            <entry>
               <link>
                  <relation value="item"/>
                  <url value="https://gematik.de/fhir/StructureDefinition/ErxReceipt"/>
               </link>
               <fullUrl value="urn:uuid:91810a79-12bb-4007-8b9c-57362ef85ca1"/>
               <resource>
                  <Binary>
                     <id value="91810a79-12bb-4007-8b9c-57362ef85ca1"/>
                     <meta>
                        <profile value="https://fhir.gkvsv.de/StructureDefinition/GKVSV_PR_Binary|1.4"/>
                     </meta>
                     <contentType value="application/pkcs7-mime"/>
                     <data value=""/>
                  </Binary>
               </resource>
            </entry>
            <entry>
               <link>
                  <relation value="item"/>
                  <url value="http://fhir.abda.de/eRezeptAbgabedaten/StructureDefinition/DAV-PR-ERP-AbgabedatenBundle"/>
               </link>
               <fullUrl value="urn:uuid:ddf89698-492a-4b48-8f3c-13d218ef3965"/>
               <resource>
                  <Binary>
                     <id value="ddf89698-492a-4b48-8f3c-13d218ef3965"/>
                     <meta>
                        <profile value="https://fhir.gkvsv.de/StructureDefinition/GKVSV_PR_Binary|1.4"/>
                     </meta>
                     <contentType value="application/pkcs7-mime"/>
                     <data value=""/>
                  </Binary>
               </resource>
            </entry>
            <entry>
               <link>
                  <relation value="item"/>
                  <url value="https://fhir.gkvsv.de/StructureDefinition/GKVSV_PR_ERP_eAbrechnungsdaten"/>
               </link>
               <fullUrl value="urn:uuid:72ffb43a-b6c9-473a-a54a-8dac49187d57"/>
               <resource>
                  <Invoice>
                     <id value="72ffb43a-b6c9-473a-a54a-8dac49187d57"/>
                     <meta>
                        <profile value="https://fhir.gkvsv.de/StructureDefinition/GKVSV_PR_ERP_eAbrechnungsdaten|1.4"/>
                     </meta>
                     <extension url="https://fhir.gkvsv.de/StructureDefinition/GKVSV_EX_ERP_Irrlaeufer">
                        <valueBoolean value="false"/>
                     </extension>
                     <identifier>
                        <system value="https://gematik.de/fhir/erp/NamingSystem/GEM_ERP_NS_PrescriptionId"/>
                        <value value="160.000.000.000.013.18"/>
                     </identifier>
                     <identifier>
                        <system value="https://fhir.gkvsv.de/NamingSystem/GKVSV_NS_Belegnummer"/>
                        <value value="2501000000107654321"/>
                     </identifier>
                     <status value="issued"/>
                     <issuer>
                        <extension url="https://fhir.gkvsv.de/StructureDefinition/GKVSV_EX_ERP_LE_Sitz">
                           <valueCoding>
                              <system value="https://fhir.gkvsv.de/CodeSystem/GKVSV_CS_ERP_Leistungserbringer_Sitz"/>
                              <code value="1"/>
                           </valueCoding>
                        </extension>
                        <identifier>
                           <type>
                              <coding>
                                 <system value="https://fhir.gkvsv.de/CodeSystem/GKVSV_CS_ERP_Leistungserbringertyp"/>
                                 <code value="A"/>
                              </coding>
                           </type>
                           <system value="http://fhir.de/sid/arge-ik/iknr"/>
                           <value value="308412345"/>
                        </identifier>
                     </issuer>
                     <lineItem>
                        <extension url="https://fhir.gkvsv.de/StructureDefinition/GKVSV_EX_ERP_Positionstyp">
                           <valueCodeableConcept>
                              <coding>
                                 <system value="https://fhir.gkvsv.de/CodeSystem/GKVSV_CS_ERP_Positionstyp"/>
                                 <code value="1"/>
                                 <display value="brige Position"/>
                              </coding>
                           </valueCodeableConcept>
                        </extension>
                        <extension url="https://fhir.gkvsv.de/StructureDefinition/GKVSV_EX_ERP_VAT_VALUE">
                           <valueMoney>
                              <value value="1.26"/>
                              <currency value="EUR"/>
                           </valueMoney>
                        </extension>
                        <extension url="https://fhir.gkvsv.de/StructureDefinition/GKVSV_EX_ERP_Import">
                           <valueCodeableConcept>
                              <coding>
                                 <system value="https://fhir.gkvsv.de/CodeSystem/GKVSV_CS_ERP_Import"/>
                                 <code value="0"/>
                              </coding>
                           </valueCodeableConcept>
                        </extension>
                        <sequence value="1"/>
                        <chargeItemCodeableConcept>
                           <coding>
                              <system value="http://terminology.hl7.org/CodeSystem/v3-NullFlavor"/>
                              <code value="UNC"/>
                           </coding>
                        </chargeItemCodeableConcept>
                        <priceComponent>
                           <type value="deduction"/>
                           <code>
                              <coding>
                                 <system value="https://fhir.gkvsv.de/CodeSystem/GKVSV_CS_ERP_ZuAbschlagKey"/>
                                 <code value="R001"/>
                              </coding>
                           </code>
                           <amount>
                              <value value="-0.40"/>
                              <currency value="EUR"/>
                           </amount>
                        </priceComponent>
                        <priceComponent>
                           <type value="deduction"/>
                           <code>
                              <coding>
                                 <system value="https://fhir.gkvsv.de/CodeSystem/GKVSV_CS_ERP_ZuAbschlagKey"/>
                                 <code value="R004"/>
                              </coding>
                           </code>
                           <amount>
                              <value value="-0.50"/>
                              <currency value="EUR"/>
                           </amount>
                        </priceComponent>
                        <priceComponent>
                           <type value="deduction"/>
                           <code>
                              <coding>
                                 <system value="https://fhir.gkvsv.de/CodeSystem/GKVSV_CS_ERP_ZuAbschlagKey"/>
                                 <code value="R005"/>
                              </coding>
                           </code>
                           <amount>
                              <value value="-0.73"/>
                              <currency value="EUR"/>
                           </amount>
                        </priceComponent>
                     </lineItem>
                  </Invoice>
               </resource>
            </entry>
         </Bundle>
      </resource>
   </entry>
</Bundle>
