<?xml version="1.0" encoding="UTF-8"?>
<Bundle xmlns="http://hl7.org/fhir">
   <id value="ff8fe79e-2d23-4d4d-8e5b-9c097b59f187"/>
   <meta>
      <profile value="https://fhir.gkvsv.de/StructureDefinition/GKVSV_PR_TA7_Rechnung_Bundle|1.5"/>
   </meta>
   <identifier>
      <extension url="https://fhir.gkvsv.de/StructureDefinition/GKVSV_EX_ERP_TA7_Dateinummer">
         <valueString value="00061"/>
      </extension>
      <system value="https://fhir.gkvsv.de/NamingSystem/GKVSV_NS_Dateiname"/>
      <value value="B00FHR24061"/>
   </identifier>
   <type value="document"/>
   <timestamp value="2024-12-10T10:00:00Z"/>
   <entry>
      <fullUrl value="urn:uuid:c72563e0-c727-4102-a806-1a0cbedcf239"/>
      <resource>
         <Composition xmlns="http://hl7.org/fhir">
            <id value="c72563e0-c727-4102-a806-1a0cbedcf239"/>
            <meta>
               <profile value="https://fhir.gkvsv.de/StructureDefinition/GKVSV_PR_TA7_Rechnung_Composition|1.5"/>
            </meta>
            <extension url="https://fhir.gkvsv.de/StructureDefinition/GKVSV_EX_TA7_IK_Empfaenger">
               <valueIdentifier>
                  <system value="http://fhir.de/sid/arge-ik/iknr"/>
                  <value value="107436557"/>
               </valueIdentifier>
            </extension>
            <extension url="https://fhir.gkvsv.de/StructureDefinition/GKVSV_EX_TA7_IK_Kostentraeger">
               <valueIdentifier>
                  <system value="http://fhir.de/sid/arge-ik/iknr"/>
                  <value value="121191241"/>
               </valueIdentifier>
            </extension>
            <identifier>
               <system value="https://fhir.gkvsv.de/NamingSystem/GKVSV_NS_Rechnungsnummer"/>
               <value value="121191241-05-100823"/>
            </identifier>
            <status value="final"/>
            <type>
               <coding>
                  <system value="https://fhir.gkvsv.de/CodeSystem/GKVSV_CS_ERP_Rechnungsart"/>
                  <code value="6"/>
               </coding>
            </type>
            <date value="2025-01-31">
               <extension url="https://fhir.gkvsv.de/StructureDefinition/GKVSV_EX_ERP_TA7_Rechnungsdatum">
                  <valueDateTime value="2024-12-10"/>
               </extension>
            </date>
            <author>
               <identifier>
                  <system value="http://fhir.de/sid/arge-ik/iknr"/>
                  <value value="987654321"/>
               </identifier>
            </author>
            <title value="elektronische Rechnung"/>
            <section>
               <code>
                  <coding>
                     <system value="https://fhir.gkvsv.de/CodeSystem/GKVSV_CS_ERP_TA7"/>
                     <code value="LR"/>
                  </coding>
               </code>
               <entry>
                  <reference value="urn:uuid:234822d1-50e1-417c-8cbf-4a825ece5b5a"/>
               </entry>
            </section>
            <section>
               <code>
                  <coding>
                     <system value="https://fhir.gkvsv.de/CodeSystem/GKVSV_CS_ERP_TA7"/>
                     <code value="RB"/>
                     <display value="Rezept-Bundle"/>
                  </coding>
               </code>
               <entry>
                  <reference value="urn:uuid:4d521ac4-089f-4eb8-af62-089184ae3517"/>
               </entry>
            </section>
         </Composition>
      </resource>
   </entry>
   <entry>
      <fullUrl value="urn:uuid:234822d1-50e1-417c-8cbf-4a825ece5b5a"/>
      <resource>
         <List xmlns="http://hl7.org/fhir">
            <id value="234822d1-50e1-417c-8cbf-4a825ece5b5a"/>
            <meta>
               <profile value="https://fhir.gkvsv.de/StructureDefinition/GKVSV_PR_TA7_Rechnung_List|1.5"/>
            </meta>
            <status value="current"/>
            <mode value="working"/>
            <entry>
               <item>
                  <identifier>
                     <system value="https://fhir.gkvsv.de/NamingSystem/GKVSV_NS_Dateiname"/>
                     <value value="B00FHR24061"/>
                  </identifier>
               </item>
            </entry>
         </List>
      </resource>
   </entry>
   <entry>
      <fullUrl value="urn:uuid:4d521ac4-089f-4eb8-af62-089184ae3517"/>
      <resource>
         <Bundle xmlns="http://hl7.org/fhir">
            <id value="4d521ac4-089f-4eb8-af62-089184ae3517"/>
            <meta>
               <profile value="https://fhir.gkvsv.de/StructureDefinition/GKVSV_PR_TA7_RezeptBundle|1.5"/>
            </meta>
            <type value="collection"/>
            <entry>
               <link>
                  <relation value="item"/>
                  <url value="https://fhir.kbv.de/StructureDefinition/KBV_PR_ERP_Bundle"/>
               </link>
               <fullUrl value="urn:uuid:b90df913-2c11-40d1-b030-ba9b8952c5c9"/>
               <resource>
                  <Binary>
                     <id value="b90df913-2c11-40d1-b030-ba9b8952c5c9"/>
                     <meta>
                        <profile value="https://fhir.gkvsv.de/StructureDefinition/GKVSV_PR_Binary|1.5"/>
                     </meta>
                     <contentType value="application/pkcs7-mime"/>
                     <data value=""/>
                  </Binary>
               </resource>
            </entry>
            <entry>
               <link>
                  <relation value="item"/>
                  <url value="https://gematik.de/fhir/StructureDefinition/ErxReceipt"/>
               </link>
               <fullUrl value="urn:uuid:35ea5ddd-796d-4a30-9b0e-91adf593e688"/>
               <resource>
                  <Binary>
                     <id value="35ea5ddd-796d-4a30-9b0e-91adf593e688"/>
                     <meta>
                        <profile value="https://fhir.gkvsv.de/StructureDefinition/GKVSV_PR_Binary|1.5"/>
                     </meta>
                     <contentType value="application/pkcs7-mime"/>
                     <data value=""/>
                  </Binary>
               </resource>
            </entry>
            <entry>
               <link>
                  <relation value="item"/>
                  <url value="http://fhir.abda.de/eRezeptAbgabedaten/StructureDefinition/DAV-PR-ERP-AbgabedatenBundle"/>
               </link>
               <fullUrl value="urn:uuid:1e687ede-6b80-4bc4-93c7-a831194ccb66"/>
               <resource>
                  <Binary>
                     <id value="1e687ede-6b80-4bc4-93c7-a831194ccb66"/>
                     <meta>
                        <profile value="https://fhir.gkvsv.de/StructureDefinition/GKVSV_PR_Binary|1.5"/>
                     </meta>
                     <contentType value="application/pkcs7-mime"/>
                     <data value=""/>
                  </Binary>
               </resource>
            </entry>
            <entry>
               <link>
                  <relation value="item"/>
                  <url value="https://fhir.gkvsv.de/StructureDefinition/GKVSV_PR_ERP_eAbrechnungsdaten"/>
               </link>
               <fullUrl value="urn:uuid:034a0ded-cd92-4597-aeaa-d6082742eafd"/>
               <resource>
                  <Invoice xmlns="http://hl7.org/fhir">
                     <id value="034a0ded-cd92-4597-aeaa-d6082742eafd"/>
                     <meta>
                        <profile value="https://fhir.gkvsv.de/StructureDefinition/GKVSV_PR_ERP_eAbrechnungsdaten|1.5"/>
                     </meta>
                     <extension url="https://fhir.gkvsv.de/StructureDefinition/GKVSV_EX_ERP_Irrlaeufer">
                        <valueBoolean value="false"/>
                     </extension>
                     <identifier>
                        <system value="https://gematik.de/fhir/erp/NamingSystem/GEM_ERP_NS_PrescriptionId"/>
                        <value value="160.000.000.000.029.67"/>
                     </identifier>
                     <identifier>
                        <system value="https://fhir.gkvsv.de/NamingSystem/GKVSV_NS_Belegnummer"/>
                        <value value="2411000000257654321"/>
                     </identifier>
                     <status value="issued"/>
                     <issuer>
                        <extension url="https://fhir.gkvsv.de/StructureDefinition/GKVSV_EX_ERP_LE_Sitz">
                           <valueCoding>
                              <system value="https://fhir.gkvsv.de/CodeSystem/GKVSV_CS_ERP_Leistungserbringer_Sitz"/>
                              <code value="1"/>
                           </valueCoding>
                        </extension>
                        <identifier>
                           <type>
                              <coding>
                                 <system value="https://fhir.gkvsv.de/CodeSystem/GKVSV_CS_ERP_Leistungserbringertyp"/>
                                 <code value="A"/>
                              </coding>
                           </type>
                           <system value="http://fhir.de/sid/arge-ik/iknr"/>
                           <value value="308412345"/>
                        </identifier>
                     </issuer>
                     <lineItem>
                        <extension url="https://fhir.gkvsv.de/StructureDefinition/GKVSV_EX_ERP_Positionstyp">
                           <valueCodeableConcept>
                              <coding>
                                 <system value="https://fhir.gkvsv.de/CodeSystem/GKVSV_CS_ERP_Positionstyp"/>
                                 <code value="1"/>
                                 <display value="brige Position"/>
                              </coding>
                           </valueCodeableConcept>
                        </extension>
                        <extension url="https://fhir.gkvsv.de/StructureDefinition/GKVSV_EX_ERP_VAT_VALUE">
                           <valueMoney>
                              <value value="6.44"/>
                              <currency value="EUR"/>
                           </valueMoney>
                        </extension>
                        <extension url="https://fhir.gkvsv.de/StructureDefinition/GKVSV_EX_ERP_Import">
                           <valueCodeableConcept>
                              <coding>
                                 <system value="https://fhir.gkvsv.de/CodeSystem/GKVSV_CS_ERP_Import"/>
                                 <code value="0"/>
                              </coding>
                           </valueCodeableConcept>
                        </extension>
                        <sequence value="1"/>
                        <chargeItemCodeableConcept>
                           <coding>
                              <system value="http://terminology.hl7.org/CodeSystem/v3-NullFlavor"/>
                              <code value="UNC"/>
                           </coding>
                        </chargeItemCodeableConcept>
                        <priceComponent>
                           <type value="deduction"/>
                           <code>
                              <coding>
                                 <system value="https://fhir.gkvsv.de/CodeSystem/GKVSV_CS_ERP_ZuAbschlagKey"/>
                                 <code value="R001"/>
                              </coding>
                           </code>
                           <amount>
                              <value value="-1.77"/>
                              <currency value="EUR"/>
                           </amount>
                        </priceComponent>
                     </lineItem>
                  </Invoice>
               </resource>
            </entry>
         </Bundle>
      </resource>
   </entry>
</Bundle>
