<?xml version="1.0" encoding="UTF-8"?>
<Bundle xmlns="http://hl7.org/fhir">
   <id value="f0d9d96a-9679-4b10-b0df-2bb933ddcbed"/>
   <meta>
      <profile value="https://fhir.gkvsv.de/StructureDefinition/GKVSV_PR_TA7_Rechnung_Bundle|1.5"/>
   </meta>
   <identifier>
      <extension url="https://fhir.gkvsv.de/StructureDefinition/GKVSV_EX_ERP_TA7_Dateinummer">
         <valueString value="00062"/>
      </extension>
      <system value="https://fhir.gkvsv.de/NamingSystem/GKVSV_NS_Dateiname"/>
      <value value="B00FHR24062"/>
   </identifier>
   <type value="document"/>
   <timestamp value="2024-12-10T10:00:00Z"/>
   <entry>
      <fullUrl value="urn:uuid:f2bb1049-b140-4424-896e-fb24e1c39323"/>
      <resource>
         <Composition xmlns="http://hl7.org/fhir">
            <id value="f2bb1049-b140-4424-896e-fb24e1c39323"/>
            <meta>
               <profile value="https://fhir.gkvsv.de/StructureDefinition/GKVSV_PR_TA7_Rechnung_Composition|1.5"/>
            </meta>
            <extension url="https://fhir.gkvsv.de/StructureDefinition/GKVSV_EX_TA7_IK_Empfaenger">
               <valueIdentifier>
                  <system value="http://fhir.de/sid/arge-ik/iknr"/>
                  <value value="107436557"/>
               </valueIdentifier>
            </extension>
            <extension url="https://fhir.gkvsv.de/StructureDefinition/GKVSV_EX_TA7_IK_Kostentraeger">
               <valueIdentifier>
                  <system value="http://fhir.de/sid/arge-ik/iknr"/>
                  <value value="121191241"/>
               </valueIdentifier>
            </extension>
            <identifier>
               <system value="https://fhir.gkvsv.de/NamingSystem/GKVSV_NS_Rechnungsnummer"/>
               <value value="121191241-05-100823"/>
            </identifier>
            <status value="final"/>
            <type>
               <coding>
                  <system value="https://fhir.gkvsv.de/CodeSystem/GKVSV_CS_ERP_Rechnungsart"/>
                  <code value="6"/>
               </coding>
            </type>
            <date value="2025-01-31">
               <extension url="https://fhir.gkvsv.de/StructureDefinition/GKVSV_EX_ERP_TA7_Rechnungsdatum">
                  <valueDateTime value="2024-12-10"/>
               </extension>
            </date>
            <author>
               <identifier>
                  <system value="http://fhir.de/sid/arge-ik/iknr"/>
                  <value value="987654321"/>
               </identifier>
            </author>
            <title value="elektronische Rechnung"/>
            <section>
               <code>
                  <coding>
                     <system value="https://fhir.gkvsv.de/CodeSystem/GKVSV_CS_ERP_TA7"/>
                     <code value="LR"/>
                  </coding>
               </code>
               <entry>
                  <reference value="urn:uuid:2b00af56-bebe-4d84-9170-fd3e0c223a6b"/>
               </entry>
            </section>
            <section>
               <code>
                  <coding>
                     <system value="https://fhir.gkvsv.de/CodeSystem/GKVSV_CS_ERP_TA7"/>
                     <code value="RB"/>
                     <display value="Rezept-Bundle"/>
                  </coding>
               </code>
               <entry>
                  <reference value="urn:uuid:27084bc9-dd99-4389-90ad-d7da79d3c24f"/>
               </entry>
            </section>
         </Composition>
      </resource>
   </entry>
   <entry>
      <fullUrl value="urn:uuid:2b00af56-bebe-4d84-9170-fd3e0c223a6b"/>
      <resource>
         <List xmlns="http://hl7.org/fhir">
            <id value="2b00af56-bebe-4d84-9170-fd3e0c223a6b"/>
            <meta>
               <profile value="https://fhir.gkvsv.de/StructureDefinition/GKVSV_PR_TA7_Rechnung_List|1.5"/>
            </meta>
            <status value="current"/>
            <mode value="working"/>
            <entry>
               <item>
                  <identifier>
                     <system value="https://fhir.gkvsv.de/NamingSystem/GKVSV_NS_Dateiname"/>
                     <value value="B00FHR24062"/>
                  </identifier>
               </item>
            </entry>
         </List>
      </resource>
   </entry>
   <entry>
      <fullUrl value="urn:uuid:27084bc9-dd99-4389-90ad-d7da79d3c24f"/>
      <resource>
         <Bundle xmlns="http://hl7.org/fhir">
            <id value="27084bc9-dd99-4389-90ad-d7da79d3c24f"/>
            <meta>
               <profile value="https://fhir.gkvsv.de/StructureDefinition/GKVSV_PR_TA7_RezeptBundle|1.5"/>
            </meta>
            <type value="collection"/>
            <entry>
               <link>
                  <relation value="item"/>
                  <url value="https://fhir.kbv.de/StructureDefinition/KBV_PR_ERP_Bundle"/>
               </link>
               <fullUrl value="urn:uuid:39d2513b-d3e3-4bc6-b72f-8366c1bf90da"/>
               <resource>
                  <Binary>
                     <id value="39d2513b-d3e3-4bc6-b72f-8366c1bf90da"/>
                     <meta>
                        <profile value="https://fhir.gkvsv.de/StructureDefinition/GKVSV_PR_Binary|1.5"/>
                     </meta>
                     <contentType value="application/pkcs7-mime"/>
                     <data value=""/>
                  </Binary>
               </resource>
            </entry>
            <entry>
               <link>
                  <relation value="item"/>
                  <url value="https://gematik.de/fhir/StructureDefinition/ErxReceipt"/>
               </link>
               <fullUrl value="urn:uuid:f2392e5a-ae12-4e7a-b742-7f15ee8277a0"/>
               <resource>
                  <Binary>
                     <id value="f2392e5a-ae12-4e7a-b742-7f15ee8277a0"/>
                     <meta>
                        <profile value="https://fhir.gkvsv.de/StructureDefinition/GKVSV_PR_Binary|1.5"/>
                     </meta>
                     <contentType value="application/pkcs7-mime"/>
                     <data value=""/>
                  </Binary>
               </resource>
            </entry>
            <entry>
               <link>
                  <relation value="item"/>
                  <url value="http://fhir.abda.de/eRezeptAbgabedaten/StructureDefinition/DAV-PR-ERP-AbgabedatenBundle"/>
               </link>
               <fullUrl value="urn:uuid:921564dc-0126-46fc-abb8-3cb2fc211cc9"/>
               <resource>
                  <Binary>
                     <id value="921564dc-0126-46fc-abb8-3cb2fc211cc9"/>
                     <meta>
                        <profile value="https://fhir.gkvsv.de/StructureDefinition/GKVSV_PR_Binary|1.5"/>
                     </meta>
                     <contentType value="application/pkcs7-mime"/>
                     <data value=""/>
                  </Binary>
               </resource>
            </entry>
            <entry>
               <link>
                  <relation value="item"/>
                  <url value="https://fhir.gkvsv.de/StructureDefinition/GKVSV_PR_ERP_eAbrechnungsdaten"/>
               </link>
               <fullUrl value="urn:uuid:e99f2694-c8d4-40d3-844a-3e7668e29d10"/>
               <resource>
                  <Invoice xmlns="http://hl7.org/fhir">
                     <id value="e99f2694-c8d4-40d3-844a-3e7668e29d10"/>
                     <meta>
                        <profile value="https://fhir.gkvsv.de/StructureDefinition/GKVSV_PR_ERP_eAbrechnungsdaten|1.5"/>
                     </meta>
                     <extension url="https://fhir.gkvsv.de/StructureDefinition/GKVSV_EX_ERP_Irrlaeufer">
                        <valueBoolean value="false"/>
                     </extension>
                     <identifier>
                        <system value="https://gematik.de/fhir/erp/NamingSystem/GEM_ERP_NS_PrescriptionId"/>
                        <value value="160.000.000.000.030.64"/>
                     </identifier>
                     <identifier>
                        <system value="https://fhir.gkvsv.de/NamingSystem/GKVSV_NS_Belegnummer"/>
                        <value value="2411000000267654321"/>
                     </identifier>
                     <status value="issued"/>
                     <issuer>
                        <extension url="https://fhir.gkvsv.de/StructureDefinition/GKVSV_EX_ERP_LE_Sitz">
                           <valueCoding>
                              <system value="https://fhir.gkvsv.de/CodeSystem/GKVSV_CS_ERP_Leistungserbringer_Sitz"/>
                              <code value="1"/>
                           </valueCoding>
                        </extension>
                        <identifier>
                           <type>
                              <coding>
                                 <system value="https://fhir.gkvsv.de/CodeSystem/GKVSV_CS_ERP_Leistungserbringertyp"/>
                                 <code value="A"/>
                              </coding>
                           </type>
                           <system value="http://fhir.de/sid/arge-ik/iknr"/>
                           <value value="308412345"/>
                        </identifier>
                     </issuer>
                     <lineItem>
                        <extension url="https://fhir.gkvsv.de/StructureDefinition/GKVSV_EX_ERP_Positionstyp">
                           <valueCodeableConcept>
                              <coding>
                                 <system value="https://fhir.gkvsv.de/CodeSystem/GKVSV_CS_ERP_Positionstyp"/>
                                 <code value="1"/>
                                 <display value="brige Position"/>
                              </coding>
                           </valueCodeableConcept>
                        </extension>
                        <extension url="https://fhir.gkvsv.de/StructureDefinition/GKVSV_EX_ERP_VAT_VALUE">
                           <valueMoney>
                              <value value="3.98"/>
                              <currency value="EUR"/>
                           </valueMoney>
                        </extension>
                        <extension url="https://fhir.gkvsv.de/StructureDefinition/GKVSV_EX_ERP_Import">
                           <valueCodeableConcept>
                              <coding>
                                 <system value="https://fhir.gkvsv.de/CodeSystem/GKVSV_CS_ERP_Import"/>
                                 <code value="0"/>
                              </coding>
                           </valueCodeableConcept>
                        </extension>
                        <sequence value="1"/>
                        <chargeItemCodeableConcept>
                           <coding>
                              <system value="http://terminology.hl7.org/CodeSystem/v3-NullFlavor"/>
                              <code value="UNC"/>
                           </coding>
                        </chargeItemCodeableConcept>
                        <priceComponent>
                           <type value="deduction"/>
                           <code>
                              <coding>
                                 <system value="https://fhir.gkvsv.de/CodeSystem/GKVSV_CS_ERP_ZuAbschlagKey"/>
                                 <code value="R001"/>
                              </coding>
                           </code>
                           <amount>
                              <value value="-1.77"/>
                              <currency value="EUR"/>
                           </amount>
                        </priceComponent>
                     </lineItem>
                  </Invoice>
               </resource>
            </entry>
         </Bundle>
      </resource>
   </entry>
</Bundle>
