<Bundle xmlns="http://hl7.org/fhir">
  <id value="9ad99a8f-6bce-4ab8-ada1-bb3063566c25"/>
  <meta>
    <lastUpdated value="2025-10-27T08:30:00Z"/>
    <profile value="https://fhir.kbv.de/StructureDefinition/KBV_PR_ERP_Bundle|1.3"/>
  </meta>
  <identifier>
    <system value="https://gematik.de/fhir/erp/NamingSystem/GEM_ERP_NS_PrescriptionId"/>
    <value value="160.100.000.000.004.30"/>
  </identifier>
  <type value="document"/>
  <timestamp value="2025-10-27T08:30:00Z"/>
  <entry>
    <fullUrl value="http://pvs.praxis.local/fhir/Composition/70e4e747-a1e6-44cd-b91d-7cc2eef89c0c"/>
    <resource>
      <Composition>
        <id value="70e4e747-a1e6-44cd-b91d-7cc2eef89c0c"/>
        <meta>
          <profile value="https://fhir.kbv.de/StructureDefinition/KBV_PR_ERP_Composition|1.3"/>
        </meta>
        <extension url="https://fhir.kbv.de/StructureDefinition/KBV_EX_FOR_Legal_basis">
          <valueCoding>
            <system value="https://fhir.kbv.de/CodeSystem/KBV_CS_SFHIR_KBV_STATUSKENNZEICHEN"/>
            <code value="00"/>
          </valueCoding>
        </extension>
        <status value="final"/>
        <type>
          <coding>
            <system value="https://fhir.kbv.de/CodeSystem/KBV_CS_SFHIR_KBV_FORMULAR_ART"/>
            <code value="e16A"/>
          </coding>
        </type>
        <subject>
          <reference value="Patient/93866fdc-3e50-4902-a7e9-891b54737b5e"/>
        </subject>
        <date value="2025-10-27T08:00:00Z"/>
        <author>
          <reference value="Practitioner/cb7558e2-0fdf-4107-93f6-07f13f39e067"/>
          <type value="Practitioner"/>
        </author>
        <author>
          <type value="Device"/>
          <identifier>
            <system value="https://fhir.kbv.de/NamingSystem/KBV_NS_FOR_Pruefnummer"/>
            <value value="Y/410/2107/36/999"/>
          </identifier>
        </author>
        <title value="elektronische Arzneimittelverordnung"/>
        <attester>
          <mode value="legal"/>
          <party>
            <reference value="Practitioner/667ffd79-42a3-4002-b7ca-6b9098f20ccb"/>
          </party>
        </attester>
        <custodian>
          <reference value="Organization/5d3f4ac0-2b44-4d48-b363-e63efa72973b"/>
        </custodian>
        <section>
          <code>
            <coding>
              <system value="https://fhir.kbv.de/CodeSystem/KBV_CS_ERP_Section_Type"/>
              <code value="Prescription"/>
            </coding>
          </code>
          <entry>
            <!-- Referenz auf Verordnung (MedicationRequest) -->
            <reference value="MedicationRequest/877e9689-523e-46ca-aa78-8de34a023583"/>
          </entry>
        </section>
        <section>
          <code>
            <coding>
              <system value="https://fhir.kbv.de/CodeSystem/KBV_CS_ERP_Section_Type"/>
              <code value="Coverage"/>
            </coding>
          </code>
          <entry>
            <!-- Referenz auf Krankenkasse/KostentrĂ¤ger  -->
            <reference value="Coverage/1b89236c-ab14-4e92-937e-5af0b59d0cd4"/>
          </entry>
        </section>
      </Composition>
    </resource>
  </entry>
  <entry>
    <fullUrl value="http://pvs.praxis.local/fhir/MedicationRequest/877e9689-523e-46ca-aa78-8de34a023583"/>
    <resource>
      <MedicationRequest>
        <!--Beispiel MedicationRequest für eine PZN-Verordnung -->
        <id value="877e9689-523e-46ca-aa78-8de34a023583"/>
        <meta>
          <profile value="https://fhir.kbv.de/StructureDefinition/KBV_PR_ERP_Prescription|1.3"/>
        </meta>
        <extension url="https://fhir.kbv.de/StructureDefinition/KBV_EX_FOR_StatusCoPayment">
          <valueCoding>
            <system value="https://fhir.kbv.de/CodeSystem/KBV_CS_FOR_StatusCoPayment"/>
            <code value="0"/>
          </valueCoding>
        </extension>
        <extension url="https://fhir.kbv.de/StructureDefinition/KBV_EX_ERP_EmergencyServicesFee">
          <valueBoolean value="false"/>
        </extension>
        <extension url="https://fhir.kbv.de/StructureDefinition/KBV_EX_FOR_SER">
          <valueBoolean value="false"/>
        </extension>
        <extension url="https://fhir.kbv.de/StructureDefinition/KBV_EX_ERP_Multiple_Prescription">
          <extension url="Kennzeichen">
            <valueBoolean value="false"/>
          </extension>
        </extension>
        <status value="active"/>
        <intent value="order"/>
        <medicationReference>
          <reference value="Medication/b7dd5ddb-b5ad-4b04-af11-6d2a354bce0c"/>
        </medicationReference>
        <subject>
          <reference value="Patient/93866fdc-3e50-4902-a7e9-891b54737b5e"/>
        </subject>
        <authoredOn value="2025-10-27"/>
        <requester>
          <reference value="Practitioner/cb7558e2-0fdf-4107-93f6-07f13f39e067"/>
        </requester>
        <insurance>
          <reference value="Coverage/1b89236c-ab14-4e92-937e-5af0b59d0cd4"/>
        </insurance>
        <note>
          <text value="Bitte auf Anwendung schulen"/>
        </note>
        <dosageInstruction>
          <extension url="https://fhir.kbv.de/StructureDefinition/KBV_EX_ERP_DosageFlag">
            <valueBoolean value="false"/>
          </extension>
        </dosageInstruction>
        <dispenseRequest>
          <quantity>
            <value value="2"/>
            <unit value="Packung"/>
          </quantity>
        </dispenseRequest>
        <substitution>
          <allowedBoolean value="true"/>
        </substitution>
      </MedicationRequest>
    </resource>
  </entry>
  <entry>
    <fullUrl value="http://pvs.praxis.local/fhir/Medication/b7dd5ddb-b5ad-4b04-af11-6d2a354bce0c"/>
    <resource>
      <Medication>
        <id value="b7dd5ddb-b5ad-4b04-af11-6d2a354bce0c"/>
        <meta>
          <profile value="https://fhir.kbv.de/StructureDefinition/KBV_PR_ERP_Medication_PZN|1.3"/>
        </meta>
        <extension url="https://fhir.kbv.de/StructureDefinition/KBV_EX_ERP_Medication_Category">
          <valueCoding>
            <system value="https://fhir.kbv.de/CodeSystem/KBV_CS_ERP_Medication_Category"/>
            <code value="00"/>
          </valueCoding>
        </extension>
        <extension url="https://fhir.kbv.de/StructureDefinition/KBV_EX_Base_Medication_Type">
          <valueCodeableConcept>
           <coding>
            <system value="http://snomed.info/sct"/>
            <version value="http://snomed.info/sct/11000274103/version/20240515"/>
            <code value="763158003"/>
            <display value="Medicinal product (product)"/>
           </coding>
          </valueCodeableConcept>
        </extension>
        <extension url="https://fhir.kbv.de/StructureDefinition/KBV_EX_ERP_Medication_Vaccine">
          <valueBoolean value="false"/>
        </extension>
        <extension url="http://fhir.de/StructureDefinition/normgroesse">
          <valueCode value="N1"/>
        </extension>
        <code>
          <coding>
            <system value="http://fhir.de/CodeSystem/ifa/pzn"/>
            <code value="00427833"/>
          </coding>
          <text value="Viani 50µg/250µg 1 Diskus 60 ED N1"/>
        </code>
        <form>
          <coding>
            <system value="https://fhir.kbv.de/CodeSystem/KBV_CS_SFHIR_KBV_DARREICHUNGSFORM"/>
            <code value="IHP"/>
          </coding>
        </form>
        <amount>
          <numerator>
            <extension url="https://fhir.kbv.de/StructureDefinition/KBV_EX_ERP_Medication_PackagingSize">
              <valueString value="60"/>
            </extension>
            <unit value="Sp"/>
          </numerator>
          <denominator>
            <value value="1"/>
          </denominator>
        </amount>
        <ingredient>
          <itemCodeableConcept>
            <coding>
              <system value="http://fhir.de/CodeSystem/ask"/>
              <code value="23167"/>
            </coding>
            <text value="Salmeterol"/>
          </itemCodeableConcept>
          <strength>
            <numerator>
              <value value="50"/>
              <unit value="µg"/>
            </numerator>
            <denominator>
              <value value="1"/>
              <unit value="Einzeldosis"/>
            </denominator>
          </strength>
        </ingredient>
        <ingredient>
          <itemCodeableConcept>
            <coding>
              <system value="http://fhir.de/CodeSystem/ask"/>
              <code value="23857"/>
            </coding>
            <text value="Fluticason 17-propionat"/>
          </itemCodeableConcept>
          <strength>
            <numerator>
              <value value="250"/>
              <unit value="µg"/>
            </numerator>
            <denominator>
              <value value="1"/>
              <unit value="Einzeldosis"/>
            </denominator>
          </strength>
        </ingredient>
      </Medication>
    </resource>
  </entry>
  <entry>
    <fullUrl value="http://pvs.praxis.local/fhir/Patient/93866fdc-3e50-4902-a7e9-891b54737b5e"/>
    <resource>
      <Patient>
        <id value="93866fdc-3e50-4902-a7e9-891b54737b5e"/>
        <meta>
          <profile value="https://fhir.kbv.de/StructureDefinition/KBV_PR_FOR_Patient|1.2"/>
        </meta>
        <identifier>
          <type>
            <coding>
              <system value="http://fhir.de/CodeSystem/identifier-type-de-basis"/>
              <code value="KVZ10"/>
            </coding>
          </type>
          <system value="http://fhir.de/sid/gkv/kvid-10"/>
          <value value="K220635158"/>
        </identifier>
        <name>
          <use value="official"/>
          <family value="Königsstein">
            <extension url="http://hl7.org/fhir/StructureDefinition/humanname-own-name">
              <valueString value="Königsstein"/>
            </extension>
          </family>
          <given value="Ludger"/>
        </name>
        <birthDate value="1935-06-22"/>
        <address>
          <type value="both"/>
          <line value="Blumenweg">
            <extension url="http://hl7.org/fhir/StructureDefinition/iso21090-ADXP-streetName">
              <valueString value="Blumenweg"/>
            </extension>
          </line>
          <city value="Esens"/>
          <postalCode value="26427"/>
          <country value="D"/>
        </address>
      </Patient>
    </resource>
  </entry>
  <entry>
    <fullUrl value="http://pvs.praxis.local/fhir/Practitioner/cb7558e2-0fdf-4107-93f6-07f13f39e067"/>
    <resource>
      <Practitioner>
        <id value="cb7558e2-0fdf-4107-93f6-07f13f39e067"/>
        <meta>
          <profile value="https://fhir.kbv.de/StructureDefinition/KBV_PR_FOR_Practitioner|1.2"/>
        </meta>
        <identifier>
          <type>
            <coding>
              <system value="http://terminology.hl7.org/CodeSystem/v2-0203"/>
              <code value="LANR"/>
            </coding>
          </type>
          <system value="https://fhir.kbv.de/NamingSystem/KBV_NS_Base_ANR"/>
          <value value="895268385"/>
        </identifier>
        <name>
          <use value="official"/>
          <family value="Fischer">
            <extension url="http://hl7.org/fhir/StructureDefinition/humanname-own-name">
              <valueString value="Fischer"/>
            </extension>
          </family>
          <given value="Alexander"/>
        </name>
        <qualification>
          <code>
            <coding>
              <system value="https://fhir.kbv.de/CodeSystem/KBV_CS_FOR_Qualification_Type"/>
              <code value="03"/>
            </coding>
          </code>
        </qualification>
        <qualification>
          <code>
            <coding>
              <system value="https://fhir.kbv.de/CodeSystem/KBV_CS_FOR_Berufsbezeichnung"/>
              <code value="Berufsbezeichnung"/>
            </coding>
            <text value="Weiterbildungsassistent"/>
          </code>
        </qualification>
      </Practitioner>
    </resource>
  </entry>
  <entry>
    <fullUrl value="http://pvs.praxis.local/fhir/Practitioner/667ffd79-42a3-4002-b7ca-6b9098f20ccb"/>
    <resource>
      <Practitioner>
        <id value="667ffd79-42a3-4002-b7ca-6b9098f20ccb"/>
        <meta>
          <profile value="https://fhir.kbv.de/StructureDefinition/KBV_PR_FOR_Practitioner|1.2"/>
        </meta>
        <identifier>
          <type>
            <coding>
              <system value="http://terminology.hl7.org/CodeSystem/v2-0203"/>
              <code value="LANR"/>
            </coding>
          </type>
          <system value="https://fhir.kbv.de/NamingSystem/KBV_NS_Base_ANR"/>
          <value value="987654423"/>
        </identifier>
        <name>
          <use value="official"/>
          <family value="Schneider">
            <extension url="http://hl7.org/fhir/StructureDefinition/humanname-own-name">
              <valueString value="Schneider"/>
            </extension>
          </family>
          <given value="Emma"/>
          <prefix value="Dr. med.">
            <extension url="http://hl7.org/fhir/StructureDefinition/iso21090-EN-qualifier">
              <valueCode value="AC"/>
            </extension>
          </prefix>
        </name>
        <qualification>
          <code>
            <coding>
              <system value="https://fhir.kbv.de/CodeSystem/KBV_CS_FOR_Qualification_Type"/>
              <code value="00"/>
            </coding>
          </code>
        </qualification>
        <qualification>
          <code>
            <coding>
              <system value="https://fhir.kbv.de/CodeSystem/KBV_CS_FOR_Berufsbezeichnung"/>
              <code value="Berufsbezeichnung"/>
            </coding>
            <text value="Fachärztin für Innere Medizin"/>
          </code>
        </qualification>
      </Practitioner>
    </resource>
  </entry>
  <entry>
    <fullUrl value="http://pvs.praxis.local/fhir/Organization/5d3f4ac0-2b44-4d48-b363-e63efa72973b"/>
    <resource>
      <Organization>
        <id value="5d3f4ac0-2b44-4d48-b363-e63efa72973b"/>
        <meta>
          <profile value="https://fhir.kbv.de/StructureDefinition/KBV_PR_FOR_Organization|1.2"/>
        </meta>
        <identifier>
          <type>
            <coding>
              <system value="http://terminology.hl7.org/CodeSystem/v2-0203"/>
              <code value="BSNR"/>
            </coding>
          </type>
          <system value="https://fhir.kbv.de/NamingSystem/KBV_NS_Base_BSNR"/>
          <value value="721111100"/>
        </identifier>
        <name value="MVZ"/>
        <telecom>
          <system value="phone"/>
          <value value="0301234567"/>
        </telecom>
        <telecom>
          <system value="fax"/>
          <value value="030123456789"/>
        </telecom>
        <telecom>
          <system value="email"/>
          <value value="mvz@e-mail.de"/>
        </telecom>
        <address>
          <type value="both"/>
          <line value="Herbert-Lewin-Platz 2">
            <extension url="http://hl7.org/fhir/StructureDefinition/iso21090-ADXP-houseNumber">
              <valueString value="2"/>
            </extension>
            <extension url="http://hl7.org/fhir/StructureDefinition/iso21090-ADXP-streetName">
              <valueString value="Herbert-Lewin-Platz"/>
            </extension>
          </line>
          <city value="Berlin"/>
          <postalCode value="10623"/>
          <country value="D"/>
        </address>
      </Organization>
    </resource>
  </entry>
  <entry>
    <fullUrl value="http://pvs.praxis.local/fhir/Coverage/1b89236c-ab14-4e92-937e-5af0b59d0cd4"/>
    <resource>
      <Coverage>
        <id value="1b89236c-ab14-4e92-937e-5af0b59d0cd4"/>
        <meta>
          <profile value="https://fhir.kbv.de/StructureDefinition/KBV_PR_FOR_Coverage|1.2"/>
        </meta>
        <extension url="http://fhir.de/StructureDefinition/gkv/besondere-personengruppe">
          <valueCoding>
            <system value="https://fhir.kbv.de/CodeSystem/KBV_CS_SFHIR_KBV_PERSONENGRUPPE"/>
            <code value="00"/>
          </valueCoding>
        </extension>
        <extension url="http://fhir.de/StructureDefinition/gkv/dmp-kennzeichen">
          <valueCoding>
            <system value="https://fhir.kbv.de/CodeSystem/KBV_CS_SFHIR_KBV_DMP"/>
            <code value="05"/>
          </valueCoding>
        </extension>
        <extension url="http://fhir.de/StructureDefinition/gkv/wop">
          <valueCoding>
            <system value="https://fhir.kbv.de/CodeSystem/KBV_CS_SFHIR_ITA_WOP"/>
            <code value="17"/>
          </valueCoding>
        </extension>
        <extension url="http://fhir.de/StructureDefinition/gkv/versichertenart">
          <valueCoding>
            <system value="https://fhir.kbv.de/CodeSystem/KBV_CS_SFHIR_KBV_VERSICHERTENSTATUS"/>
            <code value="5"/>
          </valueCoding>
        </extension>
        <status value="active"/>
        <type>
          <coding>
            <system value="http://fhir.de/CodeSystem/versicherungsart-de-basis"/>
            <code value="GKV"/>
          </coding>
        </type>
        <beneficiary>
          <reference value="Patient/93866fdc-3e50-4902-a7e9-891b54737b5e"/>
        </beneficiary>
        <payor>
          <identifier>
            <system value="http://fhir.de/sid/arge-ik/iknr"/>
            <value value="109719018"/>
          </identifier>
          <display value="AOK Nordost - Die Gesundheitskasse"/>
        </payor>
      </Coverage>
    </resource>
  </entry>
</Bundle>