<Bundle xmlns="http://hl7.org/fhir">
  <id value="cf177d99-3d13-4669-8ac2-57b6f223c481"/>
  <meta>
    <profile value="http://fhir.abda.de/eRezeptAbgabedaten/StructureDefinition/DAV-PR-ERP-AbgabedatenBundle|1.2"/>
    <tag>
      <display value="Beispiel für Abgabedaten für eine PZN-Verordnung (9ad99a8f-6bce-4ab8-ada1-bb3063566c25)"/>
    </tag>
    <tag>
      <display value="ACHTUNG! Der fachlich korrekte Inhalt der Beispielinstanz kann nicht gewährleistet werden. Wir sind jederzeit dankbar für Hinweise auf Fehler oder für Verbesserungsvorschläge."/>
    </tag>
  </meta>
  <identifier>
    <system value="https://gematik.de/fhir/NamingSystem/PrescriptionID"/>
    <value value="160.100.000.000.004.30"/>
  </identifier>
  <type value="document"/>
  <timestamp value="2021-05-27T10:00:00Z"/>
  <entry>
    <fullUrl value="urn:uuid:b063e837-419c-46c8-bc9e-5fbff6ef77b6"/>
    <resource>
      <Composition>
        <id value="b063e837-419c-46c8-bc9e-5fbff6ef77b6"/>
        <meta>
          <profile value="http://fhir.abda.de/eRezeptAbgabedaten/StructureDefinition/DAV-PR-ERP-AbgabedatenComposition|1.2"/>
        </meta>
        <status value="final"/>
        <type>
          <coding>
            <system value="http://fhir.abda.de/eRezeptAbgabedaten/CodeSystem/DAV-CS-ERP-CompositionTypes"/>
            <code value="ERezeptAbgabedaten"/>
          </coding>
        </type>
        <date value="2021-05-27T10:00:00Z"/>
        <author>
          <reference value="urn:uuid:059690ce-2ac8-4293-a78d-8d91baaa0b02"/>
        </author>
        <title value="ERezeptAbgabedaten"/>
        <section>
          <title value="Abgabeinformationen"/>
          <entry>
            <reference value="urn:uuid:7d9f864d-115e-4a53-bcf2-46638e750ac1"/>
          </entry>
        </section>
        <section>
          <title value="Apotheke"/>
          <entry>
            <reference value="urn:uuid:059690ce-2ac8-4293-a78d-8d91baaa0b02"/>
          </entry>
        </section>
      </Composition>
    </resource>
  </entry>
  <entry>
    <fullUrl value="urn:uuid:059690ce-2ac8-4293-a78d-8d91baaa0b02"/>
    <resource>
      <Organization>
        <id value="059690ce-2ac8-4293-a78d-8d91baaa0b02"/>
        <meta>
          <profile value="http://fhir.abda.de/eRezeptAbgabedaten/StructureDefinition/DAV-PR-ERP-Apotheke|1.2"/>
        </meta>
        <identifier>
          <system value="http://fhir.de/NamingSystem/arge-ik/iknr"/>
          <value value="123456789"/>
        </identifier>
        <name value="Adler-Apotheke"/>
        <address>
          <type value="physical"/>
          <line value="Taunusstraße 89">
            <extension url="http://hl7.org/fhir/StructureDefinition/iso21090-ADXP-streetName">
              <valueString value="Taunusstraße"/>
            </extension>
            <extension url="http://hl7.org/fhir/StructureDefinition/iso21090-ADXP-houseNumber">
              <valueString value="89"/>
            </extension>
          </line>
          <city value="Langen"/>
          <postalCode value="63225"/>
          <country value="D"/>
        </address>
      </Organization>
    </resource>
  </entry>
  <entry>
    <fullUrl value="urn:uuid:7d9f864d-115e-4a53-bcf2-46638e750ac1"/>
    <resource>
      <MedicationDispense>
        <id value="7d9f864d-115e-4a53-bcf2-46638e750ac1"/>
        <meta>
          <profile value="http://fhir.abda.de/eRezeptAbgabedaten/StructureDefinition/DAV-PR-ERP-Abgabeinformationen|1.2"/>
        </meta>
        <extension url="http://fhir.abda.de/eRezeptAbgabedaten/StructureDefinition/DAV-EX-ERP-Abrechnungszeilen">
          <valueReference>
            <reference value="urn:uuid:4437d55d-29f1-4f5e-b1f2-3e142d25373f"/>
          </valueReference>
        </extension>
        <status value="completed"/>
        <medicationCodeableConcept>
          <coding>
            <system value="http://terminology.hl7.org/CodeSystem/data-absent-reason"/>
            <code value="not-applicable"/>
          </coding>
        </medicationCodeableConcept>
        <performer>
          <actor>
            <reference value="urn:uuid:059690ce-2ac8-4293-a78d-8d91baaa0b02"/>
          </actor>
        </performer>
        <authorizingPrescription>
          <identifier>
            <system value="https://gematik.de/fhir/NamingSystem/PrescriptionID"/>
            <value value="160.100.000.000.004.30"/>
          </identifier>
        </authorizingPrescription>
        <type>
          <coding>
            <system value="http://fhir.abda.de/eRezeptAbgabedaten/CodeSystem/DAV-CS-ERP-MedicationDispenseTyp"/>
            <code value="Abgabeinformationen"/>
          </coding>
        </type>
        <whenHandedOver value="2021-05-27"/>
      </MedicationDispense>
    </resource>
  </entry>
  <entry>
    <fullUrl value="urn:uuid:4437d55d-29f1-4f5e-b1f2-3e142d25373f"/>
    <resource>
      <Invoice>
        <id value="4437d55d-29f1-4f5e-b1f2-3e142d25373f"/>
        <meta>
          <profile value="http://fhir.abda.de/eRezeptAbgabedaten/StructureDefinition/DAV-PR-ERP-Abrechnungszeilen|1.2"/>
        </meta>
        <status value="issued"/>
        <type>
          <coding>
            <system value="http://fhir.abda.de/eRezeptAbgabedaten/CodeSystem/DAV-CS-ERP-InvoiceTyp"/>
            <code value="Abrechnungszeilen"/>
          </coding>
        </type>
        <lineItem>
          <extension url="http://fhir.abda.de/eRezeptAbgabedaten/StructureDefinition/DAV-EX-ERP-Zusatzattribute">
            <extension url="ZusatzattributFAM">
              <extension url="Markt">
                <extension url="Schluessel">
                  <valueCodeableConcept>
                    <coding>
                      <system value="http://fhir.abda.de/eRezeptAbgabedaten/CodeSystem/DAV-CS-ERP-ZusatzattributFAMSchluesselMarkt"/>
                      <code value="1"/>
                    </coding>
                  </valueCodeableConcept>
                </extension>
                <extension url="Gruppe">
                  <valueCodeableConcept>
                    <coding>
                      <system value="http://fhir.abda.de/eRezeptAbgabedaten/CodeSystem/DAV-CS-ERP-ZusatzattributGruppe"/>
                      <code value="1"/>
                    </coding>
                  </valueCodeableConcept>
                </extension>
              </extension>
              <extension url="Rabattvertragserfuellung">
                <extension url="Gruppe">
                  <valueCodeableConcept>
                    <coding>
                      <system value="http://fhir.abda.de/eRezeptAbgabedaten/CodeSystem/DAV-CS-ERP-ZusatzattributGruppe"/>
                      <code value="2"/>
                    </coding>
                  </valueCodeableConcept>
                </extension>
                <extension url="Schluessel">
                  <valueCodeableConcept>
                    <coding>
                      <system value="http://fhir.abda.de/eRezeptAbgabedaten/CodeSystem/DAV-CS-ERP-ZusatzattributFAMSchluesselAbgaberangfolge"/>
                      <code value="1"/>
                    </coding>
                  </valueCodeableConcept>
                </extension>
              </extension>
              <extension url="PreisguenstigesFAM">
                <extension url="Gruppe">
                  <valueCodeableConcept>
                    <coding>
                      <system value="http://fhir.abda.de/eRezeptAbgabedaten/CodeSystem/DAV-CS-ERP-ZusatzattributGruppe"/>
                      <code value="3"/>
                    </coding>
                  </valueCodeableConcept>
                </extension>
                <extension url="Schluessel">
                  <valueCodeableConcept>
                    <coding>
                      <system value="http://fhir.abda.de/eRezeptAbgabedaten/CodeSystem/DAV-CS-ERP-ZusatzattributFAMSchluesselAbgaberangfolge"/>
                      <code value="0"/>
                    </coding>
                  </valueCodeableConcept>
                </extension>
              </extension>
              <extension url="ImportFAM">
                <extension url="Gruppe">
                  <valueCodeableConcept>
                    <coding>
                      <system value="http://fhir.abda.de/eRezeptAbgabedaten/CodeSystem/DAV-CS-ERP-ZusatzattributGruppe"/>
                      <code value="4"/>
                    </coding>
                  </valueCodeableConcept>
                </extension>
                <extension url="Schluessel">
                  <valueCodeableConcept>
                    <coding>
                      <system value="http://fhir.abda.de/eRezeptAbgabedaten/CodeSystem/DAV-CS-ERP-ZusatzattributFAMSchluesselImportFAM"/>
                      <code value="0"/>
                    </coding>
                  </valueCodeableConcept>
                </extension>
              </extension>
            </extension>
          </extension>
          <extension url="http://fhir.abda.de/eRezeptAbgabedaten/StructureDefinition/DAV-EX-ERP-Chargenbezeichnung">
            <valueString value="A123456789-1"/>
          </extension>
          <sequence value="1"/>
          <chargeItemCodeableConcept>
            <coding>
              <system value="http://fhir.de/CodeSystem/ifa/pzn"/>
              <code value="01288434"/>
            </coding>
          </chargeItemCodeableConcept>
          <priceComponent>
            <extension url="http://fhir.abda.de/eRezeptAbgabedaten/StructureDefinition/DAV-EX-ERP-MwStSatz">
              <valueDecimal value="19.00"/>
            </extension>
            <extension url="http://fhir.abda.de/eRezeptAbgabedaten/StructureDefinition/DAV-EX-ERP-KostenVersicherter">
              <extension url="Kategorie">
                <valueCodeableConcept>
                  <coding>
                    <system value="http://fhir.abda.de/eRezeptAbgabedaten/CodeSystem/DAV-CS-ERP-KostenVersicherterKategorie"/>
                    <code value="0"/>
                  </coding>
                </valueCodeableConcept>
              </extension>
              <extension url="Kostenbetrag">
                <valueMoney>
                  <value value="10.00"/>
                  <currency value="EUR"/>
                </valueMoney>
              </extension>
            </extension>
            <type value="informational"/>
            <factor value="2"/>
            <amount>
              <value value="82.20"/>
              <currency value="EUR"/>
            </amount>
          </priceComponent>
        </lineItem>
        <totalGross>
          <extension url="http://fhir.abda.de/eRezeptAbgabedaten/StructureDefinition/DAV-EX-ERP-Gesamtzuzahlung">
            <valueMoney>
              <value value="10.00"/>
              <currency value="EUR"/>
            </valueMoney>
          </extension>
          <value value="82.20"/>
          <currency value="EUR"/>
        </totalGross>
      </Invoice>
    </resource>
  </entry>
</Bundle>
