<Bundle xmlns="http://hl7.org/fhir">
  <id value="f0d9d96a-9679-4b10-b0df-2bb933ddcbed" />
  <meta>
    <profile value="https://fhir.gkvsv.de/StructureDefinition/GKVSV_PR_TA7_Sammelrechnung_Bundle|1.1.0" />
    <tag>
      <display value="Beispiel der TA7/eAbrechnungsdaten." />
    </tag>
    <tag>
      <display value="ACHTUNG! Der fachlich korrekte Inhalt der Beispielinstanz kann nicht gew채hrleistet werden. Wir sind jederzeit dankbar f체r Hinweise auf Fehler oder f체r Verbesserungsvorschl채ge." />
    </tag>
  </meta>
  <identifier>
    <extension url="https://fhir.gkvsv.de/StructureDefinition/GKVSV_EX_ERP_TA7_Dateinummer">
      <valueString value="00062" />
    </extension>
    <system value="https://fhir.gkvsv.de/NamingSystem/GKVSV_NS_Dateiname" />
    <value value="ARZFHR21062" />
  </identifier>
  <type value="document" />
  <timestamp value="2021-06-10T10:00:00Z" />
  <entry>
    <fullUrl value="urn:uuid:f2bb1049-b140-4424-896e-fb24e1c39323" />
    <resource>
      <Composition>
        <id value="f2bb1049-b140-4424-896e-fb24e1c39323" />
        <meta>
          <profile value="https://fhir.gkvsv.de/StructureDefinition/GKVSV_PR_TA7_Sammelrechnung_Composition|1.1.0" />
        </meta>
        <extension url="https://fhir.gkvsv.de/StructureDefinition/GKVSV_EX_TA7_IK_Empfaenger">
          <valueIdentifier>
            <system value="http://fhir.de/NamingSystem/arge-ik/iknr" />
            <value value="107436557" />
          </valueIdentifier>
        </extension>
        <extension url="https://fhir.gkvsv.de/StructureDefinition/GKVSV_EX_TA7_IK_Kostentraeger">
          <valueIdentifier>
            <system value="http://fhir.de/NamingSystem/arge-ik/iknr" />
            <value value="121191241" />
          </valueIdentifier>
        </extension>
        <status value="final" />
        <type>
          <coding>
            <system value="https://fhir.gkvsv.de/CodeSystem/GKVSV_CS_ERP_TA7" />
            <code value="SR" />
            <display value="Sammelrechnung" />
          </coding>
        </type>
        <date value="2021-05-31" />
        <author>
          <identifier>
            <system value="http://fhir.de/NamingSystem/arge-ik/iknr" />
            <value value="987654321" />
          </identifier>
        </author>
        <title value="elektronische Sammelrechnung" />
        <section>
          <code>
            <coding>
              <system value="https://fhir.gkvsv.de/CodeSystem/GKVSV_CS_ERP_TA7" />
              <code value="LSR" />
              <display value="Liste der Sammelrechnungen" />
            </coding>
          </code>
          <entry>
            <reference value="urn:uuid:2b00af56-bebe-4d84-9170-fd3e0c223a6b" />
          </entry>
        </section>
        <section>
          <code>
            <coding>
              <system value="https://fhir.gkvsv.de/CodeSystem/GKVSV_CS_ERP_TA7" />
              <code value="R" />
              <display value="Rechnungen" />
            </coding>
          </code>
          <entry>
            <reference value="urn:uuid:7defe135-747f-4b76-a570-f0b8559caff5" />
          </entry>
        </section>
      </Composition>
    </resource>
  </entry>
  <entry>
    <fullUrl value="urn:uuid:2b00af56-bebe-4d84-9170-fd3e0c223a6b" />
    <resource>
      <List>
        <id value="2b00af56-bebe-4d84-9170-fd3e0c223a6b" />
        <meta>
          <profile value="https://fhir.gkvsv.de/StructureDefinition/GKVSV_PR_TA7_Sammelrechnung_List|1.1.0" />
        </meta>
        <status value="current" />
        <mode value="working" />
        <entry>
          <item>
            <reference value="Bundle/f0d9d96a-9679-4b10-b0df-2bb933ddcbed" />
          </item>
        </entry>
      </List>
    </resource>
  </entry>
  <entry>
    <fullUrl value="urn:uuid:7defe135-747f-4b76-a570-f0b8559caff5" />
    <resource>
      <Invoice>
        <id value="7defe135-747f-4b76-a570-f0b8559caff5" />
        <meta>
          <profile value="https://fhir.gkvsv.de/StructureDefinition/GKVSV_PR_TA7_Rechnung|1.1.0" />
        </meta>
        <extension url="https://fhir.gkvsv.de/StructureDefinition/GKVSV_EX_ERP_TA7_Abrechnungszeitraum">
          <valueDateTime value="2021-05-31" />
        </extension>
        <extension url="https://fhir.gkvsv.de/StructureDefinition/GKVSV_EX_ERP_RezeptBundleReferenz">
          <extension url="lineItem">
            <valueReference>
              <reference value="urn:uuid:27084bc9-dd99-4389-90ad-d7da79d3c24f" />
            </valueReference>
          </extension>
        </extension>
        <identifier>
          <system value="https://fhir.gkvsv.de/NamingSystem/GKVSV_NS_Sammelrechnungsnummer" />
          <value value="121191241-05-100621" />
        </identifier>
        <status value="issued" />
        <type>
          <coding>
            <system value="https://fhir.gkvsv.de/CodeSystem/GKVSV_CS_ERP_Rechnungsart" />
            <code value="6" />
          </coding>
        </type>
        <recipient>
          <identifier>
            <system value="http://fhir.de/NamingSystem/arge-ik/iknr" />
            <value value="121191241" />
          </identifier>
        </recipient>
        <date value="2021-06-10" />
      </Invoice>
    </resource>
  </entry>
  <entry>
    <fullUrl value="urn:uuid:27084bc9-dd99-4389-90ad-d7da79d3c24f" />
    <resource>
      <Bundle>
        <id value="27084bc9-dd99-4389-90ad-d7da79d3c24f" />
        <meta>
          <profile value="https://fhir.gkvsv.de/StructureDefinition/GKVSV_PR_TA7_RezeptBundle|1.1.0" />
        </meta>
        <type value="collection" />
        <entry>
          <link>
            <relation value="item" />
            <url value="https://fhir.kbv.de/StructureDefinition/KBV_PR_ERP_Bundle" />
          </link>
          <fullUrl value="urn:uuid:39d2513b-d3e3-4bc6-b72f-8366c1bf90da" />
          <resource>
            <Binary>
              <id value="39d2513b-d3e3-4bc6-b72f-8366c1bf90da" />
              <meta>
                <profile value="https://gematik.de/fhir/StructureDefinition/ErxBinary" />
              </meta>
              <contentType value="application/pkcs7-mime" />
              <data value="VmVyb3JkbnVuZ3NkYXRlbiBCZWlzcGllbCBFcnN0ZWxsdW5nIEJlaXNwaWVsIGVBYnJlY2hudW5nc2RhdGVu" />
            </Binary>
          </resource>
        </entry>
        <entry>
          <link>
            <relation value="item" />
            <url value="https://gematik.de/fhir/StructureDefinition/ErxReceipt" />
          </link>
          <fullUrl value="urn:uuid:f2392e5a-ae12-4e7a-b742-7f15ee8277a0" />
          <resource>
            <Binary>
              <id value="f2392e5a-ae12-4e7a-b742-7f15ee8277a0" />
              <meta>
                <profile value="https://gematik.de/fhir/StructureDefinition/ErxBinary" />
              </meta>
              <contentType value="application/pkcs7-mime" />
              <data value="UXVpdHR1bmdzLUJlaXNwaWVsIEVyc3RlbGx1bmcgQmVpc3BpZWwgZUFicmVjaG51bmdzZGF0ZW4=" />
            </Binary>
          </resource>
        </entry>
        <entry>
          <link>
            <relation value="item" />
            <url value="http://fhir.abda.de/eRezeptAbgabedaten/StructureDefinition/DAV-PR-ERP-AbgabedatenBundle" />
          </link>
          <fullUrl value="urn:uuid:921564dc-0126-46fc-abb8-3cb2fc211cc9" />
          <resource>
            <Binary>
              <id value="921564dc-0126-46fc-abb8-3cb2fc211cc9" />
              <meta>
                <profile value="https://gematik.de/fhir/StructureDefinition/ErxBinary" />
              </meta>
              <contentType value="application/pkcs7-mime" />
              <data value="ZUFiZ2FiZWRhdGVuIEJlaXNwaWVsIEVyc3RlbGx1bmcgQmVpc3BpZWwgZUFicmVjaG51bmdzZGF0ZW4=" />
            </Binary>
          </resource>
        </entry>
        <entry>
          <link>
            <relation value="item" />
            <url value="https://fhir.gkvsv.de/StructureDefinition/GKVSV_PR_ERP_eAbrechnungsdaten" />
          </link>
          <fullUrl value="urn:uuid:e99f2694-c8d4-40d3-844a-3e7668e29d10" />
          <resource>
            <Invoice>
              <id value="e99f2694-c8d4-40d3-844a-3e7668e29d10" />
              <meta>
                <profile value="https://fhir.gkvsv.de/StructureDefinition/GKVSV_PR_ERP_eAbrechnungsdaten|1.1.0" />
              </meta>
              <extension url="https://fhir.gkvsv.de/StructureDefinition/GKVSV_EX_ERP_Irrlaeufer">
                <valueBoolean value="false" />
              </extension>
              <identifier>
                <system value="https://gematik.de/fhir/NamingSystem/PrescriptionID" />
                <value value="160.100.000.000.020.79" />
              </identifier>
              <identifier>
                <system value="https://fhir.gkvsv.de/NamingSystem/GKVSV_NS_Belegnummer" />
                <value value="2105000000613456789" />
              </identifier>
              <status value="issued" />
              <issuer>
                <extension url="https://fhir.gkvsv.de/StructureDefinition/GKVSV_EX_ERP_LE_Sitz">
                  <valueCoding>
                    <system value="https://fhir.gkvsv.de/CodeSystem/GKVSV_CS_ERP_Leistungserbringer_Sitz" />
                    <code value="1" />
                  </valueCoding>
                </extension>
                <identifier>
                  <type>
                    <coding>
                      <system value="https://fhir.gkvsv.de/CodeSystem/GKVSV_CS_ERP_Leistungserbringertyp" />
                      <code value="A" />
                    </coding>
                  </type>
                  <system value="http://fhir.de/NamingSystem/arge-ik/iknr" />
                  <value value="308412345" />
                </identifier>
              </issuer>
              <lineItem>
                <extension url="https://fhir.gkvsv.de/StructureDefinition/GKVSV_EX_ERP_Positionstyp">
                  <valueCodeableConcept>
                    <coding>
                      <system value="https://fhir.gkvsv.de/CodeSystem/GKVSV_CS_ERP_Positionstyp" />
                      <code value="1" />
                      <display value="체brige Position" />
                    </coding>
                  </valueCodeableConcept>
                </extension>
                <extension url="https://fhir.gkvsv.de/StructureDefinition/GKVSV_EX_ERP_VAT_VALUE">
                  <valueMoney>
                    <value value="3.98" />
                    <currency value="EUR" />
                  </valueMoney>
                </extension>
                <extension url="https://fhir.gkvsv.de/StructureDefinition/GKVSV_EX_ERP_Import">
                  <valueCodeableConcept>
                    <coding>
                      <system value="https://fhir.gkvsv.de/CodeSystem/GKVSV_CS_ERP_Import" />
                      <code value="0" />
                    </coding>
                  </valueCodeableConcept>
                </extension>
                <sequence value="1" />
                <chargeItemCodeableConcept>
                  <coding>
                    <system value="http://terminology.hl7.org/CodeSystem/v3-NullFlavor" />
                    <code value="UNC" />
                  </coding>
                </chargeItemCodeableConcept>
                <priceComponent>
                  <type value="deduction" />
                  <code>
                    <coding>
                      <system value="https://fhir.gkvsv.de/CodeSystem/GKVSV_CS_ERP_ZuAbschlagKey" />
                      <code value="R001" />
                    </coding>
                  </code>
                  <amount>
                    <value value="-1.77" />
                    <currency value="EUR" />
                  </amount>
                </priceComponent>
              </lineItem>
            </Invoice>
          </resource>
        </entry>
      </Bundle>
    </resource>
  </entry>
</Bundle>