<?xml version="1.0" encoding="UTF-8"?>
<Bundle xmlns="http://hl7.org/fhir">
	<id value="1e14efd1-2d67-4ac0-ba53-a9ce0528e86c"/>
	<meta>
		<profile value="https://fhir.kbv.de/StructureDefinition/KBV_PR_ERP_Bundle|1.1.0"/>
	</meta>
	<identifier>
		<system value="https://gematik.de/fhir/erp/NamingSystem/GEM_ERP_NS_PrescriptionId"/>
		<value value="160.065.873.704.859.46"/>
	</identifier>
	<type value="document"/>
	<timestamp value="2025-01-19T08:30:00Z"/>
	<entry>
		<fullUrl value="http://pvs.praxis.local/fhir/Composition/a09ed582-85e8-4f9b-9618-16cbae4db34a"/>
		<resource>
			<Composition>
				<id value="a09ed582-85e8-4f9b-9618-16cbae4db34a"/>
				<meta>
					<profile value="https://fhir.kbv.de/StructureDefinition/KBV_PR_ERP_Composition|1.1.0"/>
				</meta>
				<extension url="https://fhir.kbv.de/StructureDefinition/KBV_EX_FOR_Legal_basis">
					<valueCoding>
						<system value="https://fhir.kbv.de/CodeSystem/KBV_CS_SFHIR_KBV_STATUSKENNZEICHEN"/>
						<code value="00"/>
					</valueCoding>
				</extension>
				<status value="final"/>
				<type>
					<coding>
						<system value="https://fhir.kbv.de/CodeSystem/KBV_CS_SFHIR_KBV_FORMULAR_ART"/>
						<code value="e16A"/>
					</coding>
				</type>
				<subject>
					<reference value="Patient/2f0e01d4-8c3a-4388-a958-4f39fccadfe9"/>
				</subject>
				<date value="2025-01-19T08:00:00Z"/>
				<author>
					<reference value="Practitioner/553ca6a3-0afc-4f87-81ab-ed197f19ecfd"/>
					<type value="Practitioner"/>
				</author>
				<author>
					<type value="Device"/>
					<identifier>
						<system value="https://fhir.kbv.de/NamingSystem/KBV_NS_FOR_Pruefnummer"/>
						<value value="Y/400/2107/36/999"/>
					</identifier>
				</author>
				<title value="elektronische Arzneimittelverordnung"/>
				<custodian>
					<reference value="Organization/dfbb54cd-c424-4694-b812-8c7d356a70d4"/>
				</custodian>
				<section>
					<code>
						<coding>
							<system value="https://fhir.kbv.de/CodeSystem/KBV_CS_ERP_Section_Type"/>
							<code value="Prescription"/>
						</coding>
					</code>
					<entry>
						<reference value="MedicationRequest/065656a8-bb30-4ede-99af-e297d56ccce4"/>
					</entry>
				</section>
				<section>
					<code>
						<coding>
							<system value="https://fhir.kbv.de/CodeSystem/KBV_CS_ERP_Section_Type"/>
							<code value="Coverage"/>
						</coding>
					</code>
					<entry>
						<reference value="Coverage/38bddd40-0787-4600-a62d-8955bad2e9ac"/>
					</entry>
				</section>
			</Composition>
		</resource>
	</entry>
	<entry>
		<fullUrl value="http://pvs.praxis.local/fhir/MedicationRequest/065656a8-bb30-4ede-99af-e297d56ccce4"/>
		<resource>
			<MedicationRequest>
				<id value="065656a8-bb30-4ede-99af-e297d56ccce4"/>
				<meta>
					<profile value="https://fhir.kbv.de/StructureDefinition/KBV_PR_ERP_Prescription|1.1.0"/>
				</meta>
				<extension url="https://fhir.kbv.de/StructureDefinition/KBV_EX_ERP_EmergencyServicesFee">
					<valueBoolean value="false"/>
				</extension>
				<extension url="https://fhir.kbv.de/StructureDefinition/KBV_EX_ERP_BVG">
					<valueBoolean value="false"/>
				</extension>
				<extension url="https://fhir.kbv.de/StructureDefinition/KBV_EX_ERP_Multiple_Prescription">
					<extension url="Kennzeichen">
						<valueBoolean value="false"/>
					</extension>
				</extension>
				<extension url="https://fhir.kbv.de/StructureDefinition/KBV_EX_FOR_StatusCoPayment">
					<valueCoding>
						<system value="https://fhir.kbv.de/CodeSystem/KBV_CS_FOR_StatusCoPayment"/>
						<code value="1"/>
					</valueCoding>
				</extension>
				<status value="active"/>
				<intent value="order"/>
				<medicationReference>
					<reference value="Medication/e44fe654-f96d-48a2-bc55-22060a6e0fa3"/>
				</medicationReference>
				<subject>
					<reference value="Patient/2f0e01d4-8c3a-4388-a958-4f39fccadfe9"/>
				</subject>
				<authoredOn value="2025-01-19"/>
				<requester>
					<reference value="Practitioner/553ca6a3-0afc-4f87-81ab-ed197f19ecfd"/>
				</requester>
				<insurance>
					<reference value="Coverage/38bddd40-0787-4600-a62d-8955bad2e9ac"/>
				</insurance>
				<dosageInstruction>
					<extension url="https://fhir.kbv.de/StructureDefinition/KBV_EX_ERP_DosageFlag">
						<valueBoolean value="false"/>
					</extension>
				</dosageInstruction>
				<dispenseRequest>
					<quantity>
						<value value="1"/>
						<system value="http://unitsofmeasure.org"/>
						<code value="{Package}"/>
					</quantity>
				</dispenseRequest>
				<substitution>
					<allowedBoolean value="true"/>
				</substitution>
			</MedicationRequest>
		</resource>
	</entry>
	<entry>
		<fullUrl value="http://pvs.praxis.local/fhir/Medication/e44fe654-f96d-48a2-bc55-22060a6e0fa3"/>
		<resource>
			<Medication>
				<id value="e44fe654-f96d-48a2-bc55-22060a6e0fa3"/>
				<meta>
					<profile value="https://fhir.kbv.de/StructureDefinition/KBV_PR_ERP_Medication_PZN|1.1.0"/>
				</meta>
				<extension url="https://fhir.kbv.de/StructureDefinition/KBV_EX_Base_Medication_Type">
					<valueCodeableConcept>
						<coding>
							<system value="http://snomed.info/sct"/>
							<version value="http://snomed.info/sct/900000000000207008/version/20220331"/>
							<code value="763158003"/>
							<display value="Medicinal product (product)"/>
						</coding>
					</valueCodeableConcept>
				</extension>
				<extension url="https://fhir.kbv.de/StructureDefinition/KBV_EX_ERP_Medication_Category">
					<valueCoding>
						<system value="https://fhir.kbv.de/CodeSystem/KBV_CS_ERP_Medication_Category"/>
						<code value="00"/>
					</valueCoding>
				</extension>
				<extension url="https://fhir.kbv.de/StructureDefinition/KBV_EX_ERP_Medication_Vaccine">
					<valueBoolean value="false"/>
				</extension>
				<code>
					<coding>
						<system value="http://fhir.de/CodeSystem/ifa/pzn"/>
						<code value="18027910"/>
					</coding>
					<text value="Abirasolon-mHSPC 500 mg 56 FTB + 5 mg 28 TAB"/>
				</code>
				<form>
					<coding>
						<system value="https://fhir.kbv.de/CodeSystem/KBV_CS_SFHIR_KBV_DARREICHUNGSFORM"/>
						<code value="KPG"/>
					</coding>
				</form>
				<amount>
					<numerator>
						<extension url="https://fhir.kbv.de/StructureDefinition/KBV_EX_ERP_Medication_PackagingSize">
							<valueString value="1"/>
						</extension>
						<unit value="Stück"/>
					</numerator>
					<denominator>
						<value value="1"/>
					</denominator>
				</amount>
			</Medication>
		</resource>
	</entry>
	<entry>
		<fullUrl value="http://pvs.praxis.local/fhir/Patient/2f0e01d4-8c3a-4388-a958-4f39fccadfe9"/>
		<resource>
			<Patient>
				<id value="2f0e01d4-8c3a-4388-a958-4f39fccadfe9"/>
				<meta>
					<profile value="https://fhir.kbv.de/StructureDefinition/KBV_PR_FOR_Patient|1.1.0"/>
				</meta>
				<identifier>
					<type>
						<coding>
							<system value="http://fhir.de/CodeSystem/identifier-type-de-basis"/>
							<code value="GKV"/>
						</coding>
					</type>
					<system value="http://fhir.de/sid/gkv/kvid-10"/>
					<value value="S040464113"/>
				</identifier>
				<name>
					<use value="official"/>
					<family value="Graf Freiherr von Schaumberg">
						<extension url="http://hl7.org/fhir/StructureDefinition/humanname-own-name">
							<valueString value="Schaumberg"/>
						</extension>
						<extension url="http://fhir.de/StructureDefinition/humanname-namenszusatz">
							<valueString value="Graf Freiherr"/>
						</extension>
						<extension url="http://hl7.org/fhir/StructureDefinition/humanname-own-prefix">
							<valueString value="von"/>
						</extension>
					</family>
					<given value="Karl-Friederich"/>
					<prefix value="Prof. Dr.">
						<extension url="http://hl7.org/fhir/StructureDefinition/iso21090-EN-qualifier">
							<valueCode value="AC"/>
						</extension>
					</prefix>
				</name>
				<birthDate value="1964-04-04"/>
				<address>
					<type value="both"/>
					<line value="Siegburger Str. 155">
						<extension url="http://hl7.org/fhir/StructureDefinition/iso21090-ADXP-houseNumber">
							<valueString value="155"/>
						</extension>
						<extension url="http://hl7.org/fhir/StructureDefinition/iso21090-ADXP-streetName">
							<valueString value="Siegburger Str."/>
						</extension>
					</line>
					<city value="Köln"/>
					<postalCode value="51105"/>
					<country value="D"/>
				</address>
			</Patient>
		</resource>
	</entry>
	<entry>
		<fullUrl value="http://pvs.praxis.local/fhir/Practitioner/553ca6a3-0afc-4f87-81ab-ed197f19ecfd"/>
		<resource>
			<Practitioner>
				<id value="553ca6a3-0afc-4f87-81ab-ed197f19ecfd"/>
				<meta>
					<profile value="https://fhir.kbv.de/StructureDefinition/KBV_PR_FOR_Practitioner|1.1.0"/>
				</meta>
				<identifier>
					<type>
						<coding>
							<system value="http://terminology.hl7.org/CodeSystem/v2-0203"/>
							<code value="LANR"/>
						</coding>
					</type>
					<system value="https://fhir.kbv.de/NamingSystem/KBV_NS_Base_ANR"/>
					<value value="423987564"/>
				</identifier>
				<name>
					<use value="official"/>
					<family value="Schmidt">
						<extension url="http://hl7.org/fhir/StructureDefinition/humanname-own-name">
							<valueString value="Schmidt"/>
						</extension>
					</family>
					<given value="Günter"/>
					<prefix value="Dr. med">
						<extension url="http://hl7.org/fhir/StructureDefinition/iso21090-EN-qualifier">
							<valueCode value="AC"/>
						</extension>
					</prefix>
				</name>
				<qualification>
					<code>
						<coding>
							<system value="https://fhir.kbv.de/CodeSystem/KBV_CS_FOR_Qualification_Type"/>
							<code value="00"/>
						</coding>
					</code>
				</qualification>
				<qualification>
					<code>
						<coding>
							<system value="https://fhir.kbv.de/CodeSystem/KBV_CS_FOR_Berufsbezeichnung"/>
							<code value="Berufsbezeichnung"/>
						</coding>
						<text value="Facharzt für Urologie"/>
					</code>
				</qualification>
			</Practitioner>
		</resource>
	</entry>
	<entry>
		<fullUrl value="http://pvs.praxis.local/fhir/Organization/dfbb54cd-c424-4694-b812-8c7d356a70d4"/>
		<resource>
			<Organization>
				<id value="dfbb54cd-c424-4694-b812-8c7d356a70d4"/>
				<meta>
					<profile value="https://fhir.kbv.de/StructureDefinition/KBV_PR_FOR_Organization|1.1.0"/>
				</meta>
				<identifier>
					<type>
						<coding>
							<system value="http://terminology.hl7.org/CodeSystem/v2-0203"/>
							<code value="BSNR"/>
						</coding>
					</type>
					<system value="https://fhir.kbv.de/NamingSystem/KBV_NS_Base_BSNR"/>
					<value value="721111100"/>
				</identifier>
				<name value="MVZ"/>
				<telecom>
					<system value="phone"/>
					<value value="0301234567"/>
				</telecom>
				<telecom>
					<system value="fax"/>
					<value value="030123456789"/>
				</telecom>
				<telecom>
					<system value="email"/>
					<value value="mvz@e-mail.de"/>
				</telecom>
				<address>
					<type value="both"/>
					<line value="Herbert-Lewin-Platz 2">
						<extension url="http://hl7.org/fhir/StructureDefinition/iso21090-ADXP-streetName">
							<valueString value="Herbert-Lewin-Platz"/>
						</extension>
						<extension url="http://hl7.org/fhir/StructureDefinition/iso21090-ADXP-houseNumber">
							<valueString value="2"/>
						</extension>
					</line>
					<city value="Berlin"/>
					<postalCode value="10623"/>
					<country value="D"/>
				</address>
			</Organization>
		</resource>
	</entry>
	<entry>
		<fullUrl value="http://pvs.praxis.local/fhir/Coverage/38bddd40-0787-4600-a62d-8955bad2e9ac"/>
		<resource>
			<Coverage>
				<id value="38bddd40-0787-4600-a62d-8955bad2e9ac"/>
				<meta>
					<profile value="https://fhir.kbv.de/StructureDefinition/KBV_PR_FOR_Coverage|1.1.0"/>
				</meta>
				<extension url="http://fhir.de/StructureDefinition/gkv/besondere-personengruppe">
					<valueCoding>
						<system value="https://fhir.kbv.de/CodeSystem/KBV_CS_SFHIR_KBV_PERSONENGRUPPE"/>
						<code value="00"/>
					</valueCoding>
				</extension>
				<extension url="http://fhir.de/StructureDefinition/gkv/dmp-kennzeichen">
					<valueCoding>
						<system value="https://fhir.kbv.de/CodeSystem/KBV_CS_SFHIR_KBV_DMP"/>
						<code value="00"/>
					</valueCoding>
				</extension>
				<extension url="http://fhir.de/StructureDefinition/gkv/versichertenart">
					<valueCoding>
						<system value="https://fhir.kbv.de/CodeSystem/KBV_CS_SFHIR_KBV_VERSICHERTENSTATUS"/>
						<code value="1"/>
					</valueCoding>
				</extension>
				<status value="active"/>
				<type>
					<coding>
						<system value="http://fhir.de/CodeSystem/versicherungsart-de-basis"/>
						<code value="GKV"/>
					</coding>
				</type>
				<beneficiary>
					<reference value="Patient/2f0e01d4-8c3a-4388-a958-4f39fccadfe9"/>
				</beneficiary>
				<payor>
					<identifier>
						<system value="http://fhir.de/sid/arge-ik/iknr"/>
						<value value="104212059"/>
					</identifier>
					<display value="AOK Rheinland/Hamburg"/>
				</payor>
			</Coverage>
		</resource>
	</entry>
</Bundle>