<?xml version="1.0" encoding="UTF-8"?>
<Bundle xmlns="http://hl7.org/fhir">
    <id value="2afd0f7c-2dee-47b4-b028-b62482e63211"/>
    <meta>
        <profile value="http://fhir.abda.de/eRezeptAbgabedaten/StructureDefinition/DAV-PR-ERP-AbgabedatenBundle|1.5"/>
        <tag>
            <display value="Beispiel für Abgabedaten für eine PZN-Verordnung"/>
        </tag>
        <tag>
            <display value="ACHTUNG! Der fachlich korrekte Inhalt der Beispielinstanz kann nicht gewährleistet werden. Wir sind jederzeit dankbar für Hinweise auf Fehler oder für Verbesserungsvorschläge."/>
        </tag>
    </meta>
    <identifier>
        <system value="https://gematik.de/fhir/erp/NamingSystem/GEM_ERP_NS_PrescriptionId"/>
        <value value="160.065.873.704.859.46"/>
    </identifier>
    <type value="document"/>
    <timestamp value="2025-10-19T10:00:00Z"/>
    <entry>
        <fullUrl value="urn:uuid:4d500400-a7e2-47e8-bebd-06a705044452"/>
        <resource>
             <Composition xmlns="http://hl7.org/fhir">
                <id value="4d500400-a7e2-47e8-bebd-06a705044452"/>
                <meta>
                    <profile value="http://fhir.abda.de/eRezeptAbgabedaten/StructureDefinition/DAV-PR-ERP-AbgabedatenComposition|1.5"/>
                </meta>
                <status value="final"/>
                <type>
                    <coding>
                        <system value="http://fhir.abda.de/eRezeptAbgabedaten/CodeSystem/DAV-CS-ERP-CompositionTypes"/>
                        <code value="ERezeptAbgabedaten"/>
                    </coding>
                </type>
                <date value="2025-10-19T10:00:00Z"/>
                <author>
                    <reference value="urn:uuid:e45655e2-8919-4f52-832c-a3e8e4f742b8"/>
                </author>
                <title value="ERezeptAbgabedaten"/>
                <section>
                    <title value="Abgabeinformationen"/>
                    <entry>
                        <reference value="urn:uuid:dcd9c0ab-7606-48b1-9b46-db83e519bfcd"/>
                    </entry>
                </section>
                <section>
                    <title value="Apotheke"/>
                    <entry>
                        <reference value="urn:uuid:e45655e2-8919-4f52-832c-a3e8e4f742b8"/>
                    </entry>
                </section>
            </Composition>
        </resource>
    </entry>
    <entry>
        <fullUrl value="urn:uuid:e45655e2-8919-4f52-832c-a3e8e4f742b8"/>
        <resource>
             <Organization xmlns="http://hl7.org/fhir">
                <id value="e45655e2-8919-4f52-832c-a3e8e4f742b8"/>
                <meta>
                    <profile value="http://fhir.abda.de/eRezeptAbgabedaten/StructureDefinition/DAV-PR-ERP-Apotheke|1.5"/>
                </meta>
                <identifier>
                    <system value="http://fhir.de/sid/arge-ik/iknr"/>
                    <value value="308412345"/>
                </identifier>
                <name value="Adler-Apotheke"/>
                <address>
                    <type value="physical"/>
                    <line value="Taunusstraße 89">
                        <extension url="http://hl7.org/fhir/StructureDefinition/iso21090-ADXP-streetName">
                            <valueString value="Taunusstraße"/>
                        </extension>
                        <extension url="http://hl7.org/fhir/StructureDefinition/iso21090-ADXP-houseNumber">
                            <valueString value="89"/>
                        </extension>
                    </line>
                    <city value="Langen"/>
                    <postalCode value="63225"/>
                    <country value="D"/>
                </address>
            </Organization>
        </resource>
    </entry>
    <entry>
        <fullUrl value="urn:uuid:dcd9c0ab-7606-48b1-9b46-db83e519bfcd"/>
        <resource>
             <MedicationDispense xmlns="http://hl7.org/fhir">
                <id value="dcd9c0ab-7606-48b1-9b46-db83e519bfcd"/>
                <meta>
                    <profile value="http://fhir.abda.de/eRezeptAbgabedaten/StructureDefinition/DAV-PR-ERP-Abgabeinformationen|1.5"/>
                </meta>
                <extension url="http://fhir.abda.de/eRezeptAbgabedaten/StructureDefinition/DAV-EX-ERP-Abrechnungszeilen">
                    <valueReference>
                        <reference value="urn:uuid:8296f288-f508-44d0-854b-c40944e02d46"/>
                    </valueReference>
                </extension>
                <status value="completed"/>
                <medicationCodeableConcept>
                    <coding>
                        <system value="http://terminology.hl7.org/CodeSystem/data-absent-reason"/>
                        <code value="not-applicable"/>
                    </coding>
                </medicationCodeableConcept>
                <performer>
                    <actor>
                        <reference value="urn:uuid:e45655e2-8919-4f52-832c-a3e8e4f742b8"/>
                    </actor>
                </performer>
                <authorizingPrescription>
                    <identifier>
                        <system value="https://gematik.de/fhir/erp/NamingSystem/GEM_ERP_NS_PrescriptionId"/>
                        <value value="160.065.873.704.859.46"/>
                    </identifier>
                </authorizingPrescription>
                <type>
                    <coding>
                        <system value="http://fhir.abda.de/eRezeptAbgabedaten/CodeSystem/DAV-CS-ERP-MedicationDispenseTyp"/>
                        <code value="Abgabeinformationen"/>
                    </coding>
                </type>
                <whenHandedOver value="2025-10-19"/>
            </MedicationDispense>
        </resource>
    </entry>
    <entry>
        <fullUrl value="urn:uuid:8296f288-f508-44d0-854b-c40944e02d46"/>
        <resource>
             <Invoice xmlns="http://hl7.org/fhir">
                <id value="8296f288-f508-44d0-854b-c40944e02d46"/>
                <meta>
                    <profile value="http://fhir.abda.de/eRezeptAbgabedaten/StructureDefinition/DAV-PR-ERP-Abrechnungszeilen|1.5"/>
                </meta>
                <status value="issued"/>
                <type>
                    <coding>
                        <system value="http://fhir.abda.de/eRezeptAbgabedaten/CodeSystem/DAV-CS-ERP-InvoiceTyp"/>
                        <code value="Abrechnungszeilen"/>
                    </coding>
                </type>
                <lineItem>
                    <extension url="http://fhir.abda.de/eRezeptAbgabedaten/StructureDefinition/DAV-EX-ERP-Zusatzattribute">
                        <extension url="ZusatzattributFAM">
                            <extension url="Markt">
                                <extension url="Schluessel">
                                    <valueCodeableConcept>
                                        <coding>
                                            <system value="http://fhir.abda.de/eRezeptAbgabedaten/CodeSystem/DAV-CS-ERP-ZusatzattributFAMSchluesselMarkt"/>
                                            <code value="2"/>
                                        </coding>
                                    </valueCodeableConcept>
                                </extension>
                                <extension url="Gruppe">
                                    <valueCodeableConcept>
                                        <coding>
                                            <system value="http://fhir.abda.de/eRezeptAbgabedaten/CodeSystem/DAV-CS-ERP-ZusatzattributGruppe"/>
                                            <code value="1"/>
                                        </coding>
                                    </valueCodeableConcept>
                                </extension>
                            </extension>
                            <extension url="Rabattvertragserfuellung">
                                <extension url="Gruppe">
                                    <valueCodeableConcept>
                                        <coding>
                                            <system value="http://fhir.abda.de/eRezeptAbgabedaten/CodeSystem/DAV-CS-ERP-ZusatzattributGruppe"/>
                                            <code value="2"/>
                                        </coding>
                                    </valueCodeableConcept>
                                </extension>
                                <extension url="Schluessel">
                                    <valueCodeableConcept>
                                        <coding>
                                            <system value="http://fhir.abda.de/eRezeptAbgabedaten/CodeSystem/DAV-CS-ERP-ZusatzattributFAMSchluesselAbgaberangfolge"/>
                                            <code value="0"/>
                                        </coding>
                                    </valueCodeableConcept>
                                </extension>
                            </extension>
                            <extension url="PreisguenstigesFAM">
                                <extension url="Gruppe">
                                    <valueCodeableConcept>
                                        <coding>
                                            <system value="http://fhir.abda.de/eRezeptAbgabedaten/CodeSystem/DAV-CS-ERP-ZusatzattributGruppe"/>
                                            <code value="3"/>
                                        </coding>
                                    </valueCodeableConcept>
                                </extension>
                                <extension url="Schluessel">
                                    <valueCodeableConcept>
                                        <coding>
                                            <system value="http://fhir.abda.de/eRezeptAbgabedaten/CodeSystem/DAV-CS-ERP-ZusatzattributFAMSchluesselAbgaberangfolge"/>
                                            <code value="0"/>
                                        </coding>
                                    </valueCodeableConcept>
                                </extension>
                            </extension>
                            <extension url="ImportFAM">
                                <extension url="Gruppe">
                                    <valueCodeableConcept>
                                        <coding>
                                            <system value="http://fhir.abda.de/eRezeptAbgabedaten/CodeSystem/DAV-CS-ERP-ZusatzattributGruppe"/>
                                            <code value="4"/>
                                        </coding>
                                    </valueCodeableConcept>
                                </extension>
                                <extension url="Schluessel">
                                    <valueCodeableConcept>
                                        <coding>
                                            <system value="http://fhir.abda.de/eRezeptAbgabedaten/CodeSystem/DAV-CS-ERP-ZusatzattributFAMSchluesselImportFAM"/>
                                            <code value="5"/>
                                        </coding>
                                    </valueCodeableConcept>
                                </extension>
                            </extension>
                        </extension>
                    </extension>
                    <extension url="http://fhir.abda.de/eRezeptAbgabedaten/StructureDefinition/DAV-EX-ERP-Chargenbezeichnung">
                        <valueString value="A9876543210123-45678"/>
                    </extension>
                    <sequence value="1"/>
                    <chargeItemCodeableConcept>
                        <coding>
                            <system value="http://fhir.de/CodeSystem/ifa/pzn"/>
                            <code value="18027910"/>
                        </coding>
                    </chargeItemCodeableConcept>
                    <priceComponent>
                        <extension url="http://fhir.abda.de/eRezeptAbgabedaten/StructureDefinition/DAV-EX-ERP-MwStSatz">
                            <valueDecimal value="19.00"/>
                        </extension>
                        <extension url="http://fhir.abda.de/eRezeptAbgabedaten/StructureDefinition/DAV-EX-ERP-KostenVersicherter">
                            <extension url="Kategorie">
                                <valueCodeableConcept>
                                    <coding>
                                        <system value="http://fhir.abda.de/eRezeptAbgabedaten/CodeSystem/DAV-CS-ERP-KostenVersicherterKategorie"/>
                                        <code value="0"/>
                                    </coding>
                                </valueCodeableConcept>
                            </extension>
                            <extension url="Kostenbetrag">
                                <valueMoney>
                                    <value value="10.00"/>
                                    <currency value="EUR"/>
                                </valueMoney>
                            </extension>
                        </extension>
                        <type value="informational"/>
                        <factor value="1"/>
                        <amount>
                            <value value="999.03"/>
                            <currency value="EUR"/>
                        </amount>
                    </priceComponent>
                </lineItem>
                <totalGross>
                    <extension url="http://fhir.abda.de/eRezeptAbgabedaten/StructureDefinition/DAV-EX-ERP-Gesamtzuzahlung">
                        <valueMoney>
                            <value value="10.00"/>
                            <currency value="EUR"/>
                        </valueMoney>
                    </extension>
                    <value value="999.03"/>
                    <currency value="EUR"/>
                </totalGross>
            </Invoice>
        </resource>
    </entry>
</Bundle>