<Bundle xmlns="http://hl7.org/fhir">
    <type value="searchset"/>
    <entry>
        <resource>
            <Task>
                <id value="1381400c-1dd2-11b2-802a-160d4285faa1"/>
                <meta>
                    <versionId value="3"/>
                    <lastUpdated value="2021-04-01T14:05:58.640398+00:00"/>
                    <profile value="https://gematik.de/fhir/StructureDefinition/ErxTask"/>
                </meta>
                <extension url="https://gematik.de/fhir/StructureDefinition/PrescriptionType">
                    <valueCoding>
                        <system value="https://gematik.de/fhir/CodeSystem/Flowtype"/>
                        <code value="160"/>
                        <display value="Muster 16 (Apothekenpflichtige Arzneimittel)"/>
                    </valueCoding>
                </extension>
                <extension url="https://gematik.de/fhir/StructureDefinition/AcceptDate">
                    <valueDate value="2021-05-01"/>
                </extension>
                <extension url="https://gematik.de/fhir/StructureDefinition/ExpiryDate">
                    <valueDate value="2021-07-02"/>
                </extension>
                <identifier>
                    <system value="https://gematik.de/fhir/NamingSystem/PrescriptionID"/>
                    <value value="160.000.782.570.000.69"/>
                </identifier>
                <identifier>
                    <system value="https://gematik.de/fhir/NamingSystem/AccessCode"/>
                    <value value="3228b9e60a0672f3fc8140eed4a342f97f329fb64ff6822b8fa1194770d2078c"/>
                </identifier>
                <identifier>
                    <system value="https://gematik.de/fhir/NamingSystem/Secret"/>
                    <value value="cfcb75582d3bf3968a3ad0e0f20b35ef36ac7fedc970f8dddfb950a572d5b4b3"/>
                </identifier>
                <status value="completed"/>
                <intent value="order"/>
                <for>
                    <identifier>
                        <system value="http://fhir.de/NamingSystem/gkv/kvid-10"/>
                        <value value="X234567890"/>
                    </identifier>
                </for>
                <authoredOn value="2021-04-01T13:48:20.325749400+00:00"/>
                <lastModified value="2021-04-01T13:48:20.325861900+00:00"/>
                <performerType>
                    <coding>
                        <system value="urn:ietf:rfc:3986"/>
                        <code value="urn:oid:1.2.276.0.76.4.54"/>
                        <display value="Öffentliche Apotheke"/>
                    </coding>
                </performerType>
                <input>
                    <type>
                        <coding>
                            <system value="https://gematik.de/fhir/CodeSystem/Documenttype"/>
                            <code value="1"/>
                            <display value="Health Care Provider Prescription"/>
                        </coding>
                    </type>
                    <valueReference>
                        <reference value="281a985c-f25b-4aae-91a6-41ad744080b0"/>
                    </valueReference>
                </input>
                <input>
                    <type>
                        <coding>
                            <system value="https://gematik.de/fhir/CodeSystem/Documenttype"/>
                            <code value="2"/>
                            <display value="Patient Confirmation"/>
                        </coding>
                    </type>
                    <valueReference>
                        <reference value="491cab65-1dd3-11b2-802b-160d4285faa1"/>
                    </valueReference>
                </input>
                <output>
                    <type>
                        <coding>
                            <system value="https://gematik.de/fhir/CodeSystem/Documenttype"/>
                            <code value="3"/>
                            <display value="Receipt"/>
                        </coding>
                    </type>
                    <valueReference>
                        <reference value="8a4f144a-1dd4-11b2-802e-160d4285faa1"/>
                    </valueReference>
                </output>
            </Task>
        </resource>
    </entry>
    <entry>
        <resource>
            <Bundle>
                <id value="8a4f144a-1dd4-11b2-802e-160d4285faa1"/>
                <meta>
                    <profile value="https://gematik.de/fhir/StructureDefinition/ErxReceipt"/>
                </meta>
                <identifier>
                    <system value="https://gematik.de/fhir/NamingSystem/PrescriptionID"/>
                    <value value="160.000.782.570.000.69"/>
                </identifier>
                <type value="document"/>
                <timestamp value="2021-04-01T14:05:58.639132700+00:00"/>
                <entry>
                    <resource>
                        <Composition>
                            <meta>
                                <profile value="https://gematik.de/fhir/StructureDefinition/ErxComposition"/>
                            </meta>
                            <extension url="https://gematik.de/fhir/StructureDefinition/BeneficiaryExtension">
                                <valueIdentifier>
                                    <system value="https://gematik.de/fhir/NamingSystem/TelematikID"/>
                                    <value value="3-07.2.1234560000.10.789"/>
                                </valueIdentifier>
                            </extension>
                            <status value="final"/>
                            <type>
                                <coding>
                                    <system value="https://gematik.de/fhir/CodeSystem/Documenttype"/>
                                    <code value="3"/>
                                    <display value="Receipt"/>
                                </coding>
                            </type>
                            <date value="2021-04-01T14:05:58.639115500+00:00"/>
                            <author>
                                <reference value="ErxService"/>
                            </author>
                            <title value="Quittung"/>
                            <event>
                                <period>
                                    <start value="2021-04-01T14:03:47.061988+00:00"/>
                                    <end value="2021-04-01T14:05:58.639115500+00:00"/>
                                </period>
                            </event>
                        </Composition>
                    </resource>
                </entry>
                <entry>
                    <resource>
                        <Device>
                            <id value="ErxService"/>
                            <meta>
                                <profile value="https://gematik.de/fhir/StructureDefinition/ErxDevice"/>
                            </meta>
                            <status value="active"/>
                            <deviceName>
                                <name value="E-Rezept Fachdienst Referenzimplementierung"/>
                                <type value="user-friendly-name"/>
                            </deviceName>
                            <version>
                                <value value="0.15.1+1 dirty f28d78daa5402008f0a6671dad938e04707b1ede"/>
                            </version>
                        </Device>
                    </resource>
                </entry>
                <signature>
                    <type>
                        <system value="urn:iso-astm:E1762-95:2013"/>
                        <code value="1.2.840.10065.1.12.1.1"/>
                        <display value="Author&apos;s Signature"/>
                    </type>
                    <when value="2021-04-01T14:05:58.640355900+00:00"/>
                    <who>
                        <reference value="Device/software"/>
                    </who>
                    <targetFormat value="application/fhir+xml"/>
                    <sigFormat value="application/pkcs7-mime"/>
                    <data value=""/>
                </signature>
            </Bundle>
        </resource>
    </entry>
</Bundle>