<Bundle xmlns="http://hl7.org/fhir">
  <id value="529d741c-7ad8-41d8-97c3-9aabbdd084b2" />
  <meta>
    <profile value="https://fhir.gkvsv.de/StructureDefinition/GKVSV_PR_TA7_Sammelrechnung_Bundle|1.1.0" />
    <tag>
      <display value="Beispiel der TA7/eAbrechnungsdaten." />
    </tag>
    <tag>
      <display value="ACHTUNG! Der fachlich korrekte Inhalt der Beispielinstanz kann nicht gewährleistet werden. Wir sind jederzeit dankbar für Hinweise auf Fehler oder für Verbesserungsvorschläge." />
    </tag>
  </meta>
  <identifier>
    <extension url="https://fhir.gkvsv.de/StructureDefinition/GKVSV_EX_ERP_TA7_Dateinummer">
      <valueString value="00002" />
    </extension>
    <system value="https://fhir.gkvsv.de/NamingSystem/GKVSV_NS_Dateiname" />
    <value value="ARZFHR22002" />
  </identifier>
  <type value="document" />
  <timestamp value="2022-04-12T12:32:21Z" />
  <entry>
    <fullUrl value="urn:uuid:73017425-dab8-4066-ba99-467498c7c9f7" />
    <resource>
      <Composition>
        <id value="73017425-dab8-4066-ba99-467498c7c9f7" />
        <meta>
          <profile value="https://fhir.gkvsv.de/StructureDefinition/GKVSV_PR_TA7_Sammelrechnung_Composition|1.1.0" />
        </meta>
        <extension url="https://fhir.gkvsv.de/StructureDefinition/GKVSV_EX_TA7_IK_Empfaenger">
          <valueIdentifier>
            <system value="http://fhir.de/NamingSystem/arge-ik/iknr" />
            <value value="104212516" />
          </valueIdentifier>
        </extension>
        <extension url="https://fhir.gkvsv.de/StructureDefinition/GKVSV_EX_TA7_IK_Kostentraeger">
          <valueIdentifier>
            <system value="http://fhir.de/NamingSystem/arge-ik/iknr" />
            <value value="104212505" />
          </valueIdentifier>
        </extension>
        <status value="final" />
        <type>
          <coding>
            <system value="https://fhir.gkvsv.de/CodeSystem/GKVSV_CS_ERP_TA7" />
            <code value="SR" />
            <display value="Sammelrechnung" />
          </coding>
        </type>
        <date value="2022-03-31" />
        <author>
          <identifier>
            <system value="http://fhir.de/NamingSystem/arge-ik/iknr" />
            <value value="308400023" />
          </identifier>
        </author>
        <title value="elektronische Sammelrechnung" />
        <section>
          <code>
            <coding>
              <system value="https://fhir.gkvsv.de/CodeSystem/GKVSV_CS_ERP_TA7" />
              <code value="LSR" />
              <display value="Liste der Sammelrechnungen" />
            </coding>
          </code>
          <entry>
            <reference value="urn:uuid:dfdee8be-e6d3-42bb-ba30-a2a0addf8ee9" />
          </entry>
        </section>
        <section>
          <code>
            <coding>
              <system value="https://fhir.gkvsv.de/CodeSystem/GKVSV_CS_ERP_TA7" />
              <code value="R" />
              <display value="Rechnungen" />
            </coding>
          </code>
          <entry>
            <reference value="urn:uuid:17ad750e-02f7-49cf-82ad-dd4924ed3e1e" />
          </entry>
        </section>
      </Composition>
    </resource>
  </entry>
  <entry>
    <fullUrl value="urn:uuid:dfdee8be-e6d3-42bb-ba30-a2a0addf8ee9" />
    <resource>
      <List>
        <id value="dfdee8be-e6d3-42bb-ba30-a2a0addf8ee9" />
        <meta>
          <profile value="https://fhir.gkvsv.de/StructureDefinition/GKVSV_PR_TA7_Sammelrechnung_List|1.1.0" />
        </meta>
        <status value="current" />
        <mode value="working" />
        <entry>
          <item>
            <reference value="Bundle/529d741c-7ad8-41d8-97c3-9aabbdd084b2" />
          </item>
        </entry>
      </List>
    </resource>
  </entry>
  <entry>
    <fullUrl value="urn:uuid:17ad750e-02f7-49cf-82ad-dd4924ed3e1e" />
    <resource>
      <Invoice>
        <id value="17ad750e-02f7-49cf-82ad-dd4924ed3e1e" />
        <meta>
          <profile value="https://fhir.gkvsv.de/StructureDefinition/GKVSV_PR_TA7_Rechnung|1.1.0" />
        </meta>
        <extension url="https://fhir.gkvsv.de/StructureDefinition/GKVSV_EX_ERP_TA7_Abrechnungszeitraum">
          <valueDateTime value="2022-03-31" />
        </extension>
        <extension url="https://fhir.gkvsv.de/StructureDefinition/GKVSV_EX_ERP_RezeptBundleReferenz">
          <extension url="lineItem">
            <valueReference>
              <reference value="urn:uuid:54f85124-8925-46db-9c44-711b37d4cc98" />
            </valueReference>
          </extension>
        </extension>
        <identifier>
          <system value="https://fhir.gkvsv.de/NamingSystem/GKVSV_NS_Sammelrechnungsnummer" />
          <value value="104212506-01-120422" />
        </identifier>
        <status value="issued" />
        <type>
          <coding>
            <system value="https://fhir.gkvsv.de/CodeSystem/GKVSV_CS_ERP_Rechnungsart" />
            <code value="6" />
          </coding>
        </type>
        <recipient>
          <identifier>
            <system value="http://fhir.de/NamingSystem/arge-ik/iknr" />
            <value value="104212505" />
          </identifier>
        </recipient>
        <date value="2022-04-12" />
      </Invoice>
    </resource>
  </entry>
  <entry>
    <fullUrl value="urn:uuid:54f85124-8925-46db-9c44-711b37d4cc98" />
    <resource>
      <Bundle>
        <id value="54f85124-8925-46db-9c44-711b37d4cc98" />
        <meta>
          <profile value="https://fhir.gkvsv.de/StructureDefinition/GKVSV_PR_TA7_RezeptBundle|1.1.0" />
        </meta>
        <type value="collection" />
        <entry>
          <link>
            <relation value="item" />
            <url value="https://fhir.kbv.de/StructureDefinition/KBV_PR_ERP_Bundle" />
          </link>
          <fullUrl value="urn:uuid:0428d416-149e-48a4-977c-394887b3d85c" />
          <resource>
            <Binary>
              <id value="0428d416-149e-48a4-977c-394887b3d85c" />
              <meta>
                <profile value="https://gematik.de/fhir/StructureDefinition/ErxBinary" />
              </meta>
              <contentType value="application/pkcs7-mime" />
              <data value="VmVyb3JkbnVuZ3NkYXRlbiBCZWlzcGllbCBFcnN0ZWxsdW5nIEJlaXNwaWVsIGVBYnJlY2hudW5nc2RhdGVu" />
            </Binary>
          </resource>
        </entry>
        <entry>
          <link>
            <relation value="item" />
            <url value="https://gematik.de/fhir/StructureDefinition/ErxReceipt" />
          </link>
          <fullUrl value="urn:uuid:3428d416-149e-48a4-977c-394887b3d8dd" />
          <resource>
            <Binary>
              <id value="3428d416-149e-48a4-977c-394887b3d8dd" />
              <meta>
                <profile value="https://gematik.de/fhir/StructureDefinition/ErxBinary" />
              </meta>
              <contentType value="application/pkcs7-mime" />
              <data value="UXVpdHR1bmdzLUJlaXNwaWVsIEVyc3RlbGx1bmcgQmVpc3BpZWwgZUFicmVjaG51bmdzZGF0ZW4=" />
            </Binary>
          </resource>
        </entry>
        <entry>
          <link>
            <relation value="item" />
            <url value="http://fhir.abda.de/eRezeptAbgabedaten/StructureDefinition/DAV-PR-ERP-AbgabedatenBundle" />
          </link>
          <fullUrl value="urn:uuid:2f4b554e-af65-4c4e-adad-71381df65f21" />
          <resource>
            <Binary>
              <id value="2f4b554e-af65-4c4e-adad-71381df65f21" />
              <meta>
                <profile value="https://gematik.de/fhir/StructureDefinition/ErxBinary" />
              </meta>
              <contentType value="application/pkcs7-mime" />
              <data value="ZUFiZ2FiZWRhdGVuIEJlaXNwaWVsIEVyc3RlbGx1bmcgQmVpc3BpZWwgZUFicmVjaG51bmdzZGF0ZW4=" />
            </Binary>
          </resource>
        </entry>
        <entry>
          <link>
            <relation value="item" />
            <url value="https://fhir.gkvsv.de/StructureDefinition/GKVSV_PR_ERP_eAbrechnungsdaten" />
          </link>
          <fullUrl value="urn:uuid:529d741c-7ad8-41d8-97c3-9aabbdaabbcc" />
          <resource>
            <Invoice>
              <id value="529d741c-7ad8-41d8-97c3-9aabbdaabbcc" />
              <meta>
                <profile value="https://fhir.gkvsv.de/StructureDefinition/GKVSV_PR_ERP_eAbrechnungsdaten|1.1.0" />
              </meta>
              <extension url="https://fhir.gkvsv.de/StructureDefinition/GKVSV_EX_ERP_Irrlaeufer">
                <valueBoolean value="false" />
              </extension>
              <identifier>
                <system value="https://gematik.de/fhir/NamingSystem/PrescriptionID" />
                <value value="160.000.764.737.300.50" />
              </identifier>
              <identifier>
                <system value="https://fhir.gkvsv.de/NamingSystem/GKVSV_NS_Belegnummer" />
                <value value="2103000000010000001" />
              </identifier>
              <status value="issued" />
              <issuer>
                <extension url="https://fhir.gkvsv.de/StructureDefinition/GKVSV_EX_ERP_LE_Sitz">
                  <valueCoding>
                    <system value="https://fhir.gkvsv.de/CodeSystem/GKVSV_CS_ERP_Leistungserbringer_Sitz" />
                    <code value="1" />
                  </valueCoding>
                </extension>
                <identifier>
                  <type>
                    <coding>
                      <system value="https://fhir.gkvsv.de/CodeSystem/GKVSV_CS_ERP_Leistungserbringertyp" />
                      <code value="A" />
                    </coding>
                  </type>
                  <system value="http://fhir.de/NamingSystem/arge-ik/iknr" />
                  <value value="308412345" />
                </identifier>
              </issuer>
              <lineItem>
                <extension url="https://fhir.gkvsv.de/StructureDefinition/GKVSV_EX_ERP_Positionstyp">
                  <valueCodeableConcept>
                    <coding>
                      <system value="https://fhir.gkvsv.de/CodeSystem/GKVSV_CS_ERP_Positionstyp" />
                      <code value="1" />
                      <display value="übrige Position" />
                    </coding>
                  </valueCodeableConcept>
                </extension>
                <extension url="https://fhir.gkvsv.de/StructureDefinition/GKVSV_EX_ERP_VAT_VALUE">
                  <valueMoney>
                    <value value="4.14" />
                    <currency value="EUR" />
                  </valueMoney>
                </extension>
                <extension url="https://fhir.gkvsv.de/StructureDefinition/GKVSV_EX_ERP_Import">
                  <valueCodeableConcept>
                    <coding>
                      <system value="https://fhir.gkvsv.de/CodeSystem/GKVSV_CS_ERP_Import" />
                      <code value="0" />
                    </coding>
                  </valueCodeableConcept>
                </extension>
                <sequence value="1" />
                <chargeItemCodeableConcept>
                  <coding>
                    <system value="http://terminology.hl7.org/CodeSystem/v3-NullFlavor" />
                    <code value="UNC" />
                  </coding>
                </chargeItemCodeableConcept>
                <priceComponent>
                  <type value="deduction" />
                  <code>
                    <coding>
                      <system value="https://fhir.gkvsv.de/CodeSystem/GKVSV_CS_ERP_ZuAbschlagKey" />
                      <code value="R001" />
                    </coding>
                  </code>
                  <amount>
                    <value value="-1.77" />
                    <currency value="EUR" />
                  </amount>
                </priceComponent>
              </lineItem>
            </Invoice>
          </resource>
        </entry>
      </Bundle>
    </resource>
  </entry>
</Bundle>
