<Bundle xmlns="http://hl7.org/fhir">
  <id value="d3f5b1b9-000a-45a2-b331-b1f95be60a3c"/>
  <meta>
    <profile value="http://fhir.abda.de/eRezeptAbgabedaten/StructureDefinition/DAV-PR-ERP-AbgabedatenBundle|1.1.0"/>
    <tag>
      <display value="Beispiel für Abgabedaten für eine PZN-Verordnung (V1) (Impfstoff) (914b7619-621e-4270-a2b5-1cdf95c87d14)"/>
    </tag>
    <tag>
      <display value="ACHTUNG! Der fachlich korrekte Inhalt der Beispielinstanz kann nicht gewährleistet werden. Wir sind jederzeit dankbar für Hinweise auf Fehler oder für Verbesserungsvorschläge."/>
    </tag>
  </meta>
  <identifier>
    <system value="https://gematik.de/fhir/NamingSystem/PrescriptionID"/>
    <value value="160.100.000.000.009.15"/>
  </identifier>
  <type value="document"/>
  <timestamp value="2021-05-27T10:00:00Z"/>
  <entry>
    <fullUrl value="urn:uuid:233f9a98-c1df-42eb-adda-7f7b00a2e0d1"/>
    <resource>
      <Composition>
        <id value="233f9a98-c1df-42eb-adda-7f7b00a2e0d1"/>
        <meta>
          <profile value="http://fhir.abda.de/eRezeptAbgabedaten/StructureDefinition/DAV-PR-ERP-AbgabedatenComposition|1.1.0"/>
        </meta>
        <status value="final"/>
        <type>
          <coding>
            <system value="http://fhir.abda.de/eRezeptAbgabedaten/CodeSystem/DAV-CS-ERP-CompositionTypes"/>
            <code value="ERezeptAbgabedaten"/>
          </coding>
        </type>
        <date value="2021-05-27T10:00:00Z"/>
        <author>
          <reference value="urn:uuid:26bb5900-d54d-4cb6-ab16-4f0740253ae5"/>
        </author>
        <title value="ERezeptAbgabedaten"/>
        <section>
          <title value="Abgabeinformationen"/>
          <entry>
            <reference value="urn:uuid:3f357463-6a0c-432a-8083-5c4a2fe15d84"/>
          </entry>
        </section>
        <section>
          <title value="Apotheke"/>
          <entry>
            <reference value="urn:uuid:26bb5900-d54d-4cb6-ab16-4f0740253ae5"/>
          </entry>
        </section>
      </Composition>
    </resource>
  </entry>
  <entry>
    <fullUrl value="urn:uuid:26bb5900-d54d-4cb6-ab16-4f0740253ae5"/>
    <resource>
      <Organization>
        <id value="26bb5900-d54d-4cb6-ab16-4f0740253ae5"/>
        <meta>
          <profile value="http://fhir.abda.de/eRezeptAbgabedaten/StructureDefinition/DAV-PR-ERP-Apotheke|1.1.0"/>
        </meta>
        <identifier>
          <system value="http://fhir.de/NamingSystem/arge-ik/iknr"/>
          <value value="123456789"/>
        </identifier>
        <name value="Apotheke im Einkaufszentrum am grünen Bach"/>
        <address>
          <type value="physical"/>
          <line value="Taunusstraße 89">
            <extension url="http://hl7.org/fhir/StructureDefinition/iso21090-ADXP-streetName">
              <valueString value="Taunusstraße"/>
            </extension>
            <extension url="http://hl7.org/fhir/StructureDefinition/iso21090-ADXP-houseNumber">
              <valueString value="89"/>
            </extension>
            <extension url="http://hl7.org/fhir/StructureDefinition/iso21090-ADXP-additionalLocator">
              <valueString value="Hinterhaus"/>
            </extension>
          </line>
          <city value="Langen"/>
          <postalCode value="63225"/>
          <country value="D"/>
        </address>
      </Organization>
    </resource>
  </entry>
  <entry>
    <fullUrl value="urn:uuid:3f357463-6a0c-432a-8083-5c4a2fe15d84"/>
    <resource>
      <MedicationDispense>
        <id value="3f357463-6a0c-432a-8083-5c4a2fe15d84"/>
        <meta>
          <profile value="http://fhir.abda.de/eRezeptAbgabedaten/StructureDefinition/DAV-PR-ERP-Abgabeinformationen|1.1.0"/>
        </meta>
        <extension url="http://fhir.abda.de/eRezeptAbgabedaten/StructureDefinition/DAV-EX-ERP-Abrechnungszeilen">
          <valueReference>
            <reference value="urn:uuid:2f007ef5-11ee-4985-8ac1-227208a31237"/>
          </valueReference>
        </extension>
        <status value="completed"/>
        <medicationCodeableConcept>
          <coding>
            <system value="http://terminology.hl7.org/CodeSystem/data-absent-reason"/>
            <code value="not-applicable"/>
          </coding>
        </medicationCodeableConcept>
        <performer>
          <actor>
            <reference value="urn:uuid:26bb5900-d54d-4cb6-ab16-4f0740253ae5"/>
          </actor>
        </performer>
        <authorizingPrescription>
          <identifier>
            <system value="https://gematik.de/fhir/NamingSystem/PrescriptionID"/>
            <value value="160.100.000.000.009.15"/>
          </identifier>
        </authorizingPrescription>
        <type>
          <coding>
            <system value="http://fhir.abda.de/eRezeptAbgabedaten/CodeSystem/DAV-CS-ERP-MedicationDispenseTyp"/>
            <code value="Abgabeinformationen"/>
          </coding>
        </type>
        <whenHandedOver value="2021-05-27"/>
      </MedicationDispense>
    </resource>
  </entry>
  <entry>
    <fullUrl value="urn:uuid:2f007ef5-11ee-4985-8ac1-227208a31237"/>
    <resource>
      <Invoice>
        <id value="2f007ef5-11ee-4985-8ac1-227208a31237"/>
        <meta>
          <profile value="http://fhir.abda.de/eRezeptAbgabedaten/StructureDefinition/DAV-PR-ERP-Abrechnungszeilen|1.1.0"/>
        </meta>
        <status value="issued"/>
        <type>
          <coding>
            <system value="http://fhir.abda.de/eRezeptAbgabedaten/CodeSystem/DAV-CS-ERP-InvoiceTyp"/>
            <code value="Abrechnungszeilen"/>
          </coding>
        </type>
        <lineItem>
          <extension url="http://fhir.abda.de/eRezeptAbgabedaten/StructureDefinition/DAV-EX-ERP-Zusatzattribute">
            <extension url="ZusatzattributFAM">
              <extension url="Markt">
                <extension url="Schluessel">
                  <valueCodeableConcept>
                    <coding>
                      <system value="http://fhir.abda.de/eRezeptAbgabedaten/CodeSystem/DAV-CS-ERP-ZusatzattributFAMSchluesselMarkt"/>
                      <code value="2"/>
                    </coding>
                  </valueCodeableConcept>
                </extension>
                <extension url="Gruppe">
                  <valueCodeableConcept>
                    <coding>
                      <system value="http://fhir.abda.de/eRezeptAbgabedaten/CodeSystem/DAV-CS-ERP-ZusatzattributGruppe"/>
                      <code value="1"/>
                    </coding>
                  </valueCodeableConcept>
                </extension>
              </extension>
              <extension url="Rabattvertragserfuellung">
                <extension url="Gruppe">
                  <valueCodeableConcept>
                    <coding>
                      <system value="http://fhir.abda.de/eRezeptAbgabedaten/CodeSystem/DAV-CS-ERP-ZusatzattributGruppe"/>
                      <code value="2"/>
                    </coding>
                  </valueCodeableConcept>
                </extension>
                <extension url="Schluessel">
                  <valueCodeableConcept>
                    <coding>
                      <system value="http://fhir.abda.de/eRezeptAbgabedaten/CodeSystem/DAV-CS-ERP-ZusatzattributFAMSchluesselAbgaberangfolge"/>
                      <code value="0"/>
                    </coding>
                  </valueCodeableConcept>
                </extension>
              </extension>
              <extension url="PreisguenstigesFAM">
                <extension url="Gruppe">
                  <valueCodeableConcept>
                    <coding>
                      <system value="http://fhir.abda.de/eRezeptAbgabedaten/CodeSystem/DAV-CS-ERP-ZusatzattributGruppe"/>
                      <code value="3"/>
                    </coding>
                  </valueCodeableConcept>
                </extension>
                <extension url="Schluessel">
                  <valueCodeableConcept>
                    <coding>
                      <system value="http://fhir.abda.de/eRezeptAbgabedaten/CodeSystem/DAV-CS-ERP-ZusatzattributFAMSchluesselAbgaberangfolge"/>
                      <code value="0"/>
                    </coding>
                  </valueCodeableConcept>
                </extension>
              </extension>
              <extension url="ImportFAM">
                <extension url="Gruppe">
                  <valueCodeableConcept>
                    <coding>
                      <system value="http://fhir.abda.de/eRezeptAbgabedaten/CodeSystem/DAV-CS-ERP-ZusatzattributGruppe"/>
                      <code value="4"/>
                    </coding>
                  </valueCodeableConcept>
                </extension>
                <extension url="Schluessel">
                  <valueCodeableConcept>
                    <coding>
                      <system value="http://fhir.abda.de/eRezeptAbgabedaten/CodeSystem/DAV-CS-ERP-ZusatzattributFAMSchluesselAbgaberangfolge"/>
                      <code value="0"/>
                    </coding>
                  </valueCodeableConcept>
                </extension>
              </extension>
            </extension>
          </extension>
          <extension url="http://fhir.abda.de/eRezeptAbgabedaten/StructureDefinition/DAV-EX-ERP-Chargenbezeichnung">
            <valueString value="A9876543210123-45678"/>
          </extension>
          <sequence value="1"/>
          <chargeItemCodeableConcept>
            <coding>
              <system value="http://fhir.de/CodeSystem/ifa/pzn"/>
              <code value="10259495"/>
            </coding>
          </chargeItemCodeableConcept>
          <priceComponent>
            <extension url="http://fhir.abda.de/eRezeptAbgabedaten/StructureDefinition/DAV-EX-ERP-MwStSatz">
              <valueDecimal value="19.00"/>
            </extension>
            <extension url="http://fhir.abda.de/eRezeptAbgabedaten/StructureDefinition/DAV-EX-ERP-KostenVersicherter">
              <extension url="Kategorie">
                <valueCodeableConcept>
                  <coding>
                    <system value="http://fhir.abda.de/eRezeptAbgabedaten/CodeSystem/DAV-CS-ERP-KostenVersicherterKategorie"/>
                    <code value="0"/>
                  </coding>
                </valueCodeableConcept>
              </extension>
              <extension url="Kostenbetrag">
                <valueMoney>
                  <value value="0.00"/>
                  <currency value="EUR"/>
                </valueMoney>
              </extension>
            </extension>
            <type value="informational"/>
            <factor value="1"/>
            <amount>
              <value value="46.77"/>
              <currency value="EUR"/>
            </amount>
          </priceComponent>
        </lineItem>
        <totalGross>
          <extension url="http://fhir.abda.de/eRezeptAbgabedaten/StructureDefinition/DAV-EX-ERP-Gesamtzuzahlung">
            <valueMoney>
              <value value="0.00"/>
              <currency value="EUR"/>
            </valueMoney>
          </extension>
          <value value="46.77"/>
          <currency value="EUR"/>
        </totalGross>
      </Invoice>
    </resource>
  </entry>
</Bundle>
