<?xml version="1.0" encoding="UTF-8"?>
<Parameters xmlns="http://hl7.org/fhir">
  <id value="01ce5139-197f-4520-8805-12a2a4a1c546"/>
  <meta>
    <profile value="https://gematik.de/fhir/erp/StructureDefinition/GEM_ERP_PR_PAR_CloseOperation_Input|1.4"/>
    <!--tag>
      <display value="Beispiel MedicationDispense PKV Wirkstoff (multiple medications)"/>
    </tag>
    <tag>
      <display value="ACHTUNG! Der fachlich korrekte Inhalt der Beispielinstanz kann nicht gewährleistet werden. Wir sind jederzeit dankbar für Hinweise auf Fehler oder für Verbesserungsvorschläge."/>
    </tag-->
  </meta>
  <parameter>
    <name value="rxDispensation"/>
    <part>
      <name value="medicationDispense"/>
      <resource>
        <MedicationDispense>
          <id value="9c071f12-db40-4f7e-9b87-18cea3458c0d"/>
          <meta>
            <profile value="https://gematik.de/fhir/erp/StructureDefinition/GEM_ERP_PR_MedicationDispense|1.4"/>
          </meta>
          <identifier>
            <system value="https://gematik.de/fhir/erp/NamingSystem/GEM_ERP_NS_PrescriptionId"/>
            <value value="200.643.100.572.979.08"/>
          </identifier>
          <status value="completed"/>
          <medicationReference>
            <reference value="ebdb8f91-b514-4374-bd18-825f9437e2aa"/>
          </medicationReference>
          <subject>
            <identifier>
              <system value="http://fhir.de/sid/gkv/kvid-10"/>
              <value value="P123464315"/>
            </identifier>
          </subject>
          <performer>
            <actor>
              <identifier>
                <system value="https://gematik.de/fhir/sid/telematik-id"/>
                <value value="3-abc-1234567890"/>
              </identifier>
            </actor>
          </performer>
          <whenHandedOver value="2024-11-03"/>
          <!--substitution>
            <wasSubstituted value="false"/>
          </substitution-->
        </MedicationDispense>
      </resource>
    </part>
    <part>
      <name value="medication"/>
      <resource>
        <Medication>
          <id value="ebdb8f91-b514-4374-bd18-825f9437e2aa"/>
          <meta>
            <profile value="https://gematik.de/fhir/erp/StructureDefinition/GEM_ERP_PR_Medication|1.4"/>
          </meta>
          <code>
            <coding>
              <system value="http://fhir.de/CodeSystem/ifa/pzn"/>
              <code value="06437063"/>
            </coding>
            <text value="Doxycyclin 200-1a Pharma Tabletten - 20 St"/>
          </code>
          <form>
            <coding>
              <system value="https://fhir.kbv.de/CodeSystem/KBV_CS_SFHIR_KBV_DARREICHUNGSFORM"/>
              <code value="TAB"/>
              <display value="Tabletten"/>
            </coding>
          </form>
          <amount>
            <numerator>
              <extension url="https://gematik.de/fhir/epa-medication/StructureDefinition/medication-packaging-size-extension">
                <valueString value="20"/>
              </extension>
              <unit value="Stück"/>
            </numerator>
            <denominator>
              <value value="1"/>
            </denominator>
          </amount>
          <ingredient>
            <itemCodeableConcept>
              <text value="Doxycyclin"/>
            </itemCodeableConcept>
            <strength>
              <numerator>
                <value value="200"/>
                <unit value="mg"/>
                <system>
                  <extension url="http://hl7.org/fhir/StructureDefinition/data-absent-reason">
                    <valueCode value="unknown"/>
                  </extension>
                </system>
                <code>
                  <extension url="http://hl7.org/fhir/StructureDefinition/data-absent-reason">
                    <valueCode value="unknown"/>
                  </extension>
                </code>
              </numerator>
              <denominator>
                <value value="1"/>
                <system>
                  <extension url="http://hl7.org/fhir/StructureDefinition/data-absent-reason">
                    <valueCode value="unknown"/>
                  </extension>
                </system>
                <code>
                  <extension url="http://hl7.org/fhir/StructureDefinition/data-absent-reason">
                    <valueCode value="unknown"/>
                  </extension>
                </code>
              </denominator>
            </strength>
          </ingredient>
          <batch>
            <lotNumber value="A123456789-1"/>
          </batch>
        </Medication>
      </resource>
    </part>
  </parameter>
  <parameter>
    <name value="rxDispensation"/>
    <part>
      <name value="medicationDispense"/>
      <resource>
        <MedicationDispense>
          <id value="40afa27e-9c66-48d0-8f09-4d2eb43fb44d"/>
          <meta>
            <profile value="https://gematik.de/fhir/erp/StructureDefinition/GEM_ERP_PR_MedicationDispense|1.4"/>
          </meta>
          <identifier>
            <system value="https://gematik.de/fhir/erp/NamingSystem/GEM_ERP_NS_PrescriptionId"/>
            <value value="200.643.100.572.979.08"/>
          </identifier>
          <status value="completed"/>
          <medicationReference>
            <reference value="a4048f3c-4803-46ad-b809-63cf53fed771"/>
          </medicationReference>
          <subject>
            <identifier>
              <system value="http://fhir.de/sid/gkv/kvid-10"/>
              <value value="P123464319"/>
            </identifier>
          </subject>
          <performer>
            <actor>
              <identifier>
                <system value="https://gematik.de/fhir/sid/telematik-id"/>
                <value value="3-abc-1234567890"/>
              </identifier>
            </actor>
          </performer>
          <whenHandedOver value="2024-11-03"/>
          <!--substitution>
            <wasSubstituted value="false"/>
          </substitution-->
        </MedicationDispense>
      </resource>
    </part>
    <part>
      <name value="medication"/>
      <resource>
        <Medication>
          <id value="a4048f3c-4803-46ad-b809-63cf53fed771"/>
          <meta>
            <profile value="https://gematik.de/fhir/erp/StructureDefinition/GEM_ERP_PR_Medication|1.4"/>
          </meta>
          <code>
            <coding>
              <system value="http://fhir.de/CodeSystem/ifa/pzn"/>
              <code value="06437057"/>
            </coding>
            <text value="Doxycyclin 200-1a Pharma Tabletten - 10 St"/>
          </code>
          <form>
            <coding>
              <system value="https://fhir.kbv.de/CodeSystem/KBV_CS_SFHIR_KBV_DARREICHUNGSFORM"/>
              <code value="TAB"/>
              <display value="Tabletten"/>
            </coding>
          </form>
          <amount>
            <numerator>
              <extension url="https://gematik.de/fhir/epa-medication/StructureDefinition/medication-packaging-size-extension">
                <valueString value="10"/>
              </extension>
              <unit value="Stück"/>
            </numerator>
            <denominator>
              <value value="1"/>
            </denominator>
          </amount>
          <ingredient>
            <itemCodeableConcept>
              <text value="Doxycyclin"/>
            </itemCodeableConcept>
            <strength>
              <numerator>
                <value value="200"/>
                <unit value="mg"/>
                <system>
                  <extension url="http://hl7.org/fhir/StructureDefinition/data-absent-reason">
                    <valueCode value="unknown"/>
                  </extension>
                </system>
                <code>
                  <extension url="http://hl7.org/fhir/StructureDefinition/data-absent-reason">
                    <valueCode value="unknown"/>
                  </extension>
                </code>
              </numerator>
              <denominator>
                <value value="1"/>
                <system>
                  <extension url="http://hl7.org/fhir/StructureDefinition/data-absent-reason">
                    <valueCode value="unknown"/>
                  </extension>
                </system>
                <code>
                  <extension url="http://hl7.org/fhir/StructureDefinition/data-absent-reason">
                    <valueCode value="unknown"/>
                  </extension>
                </code>
              </denominator>
            </strength>
          </ingredient>
          <batch>
            <lotNumber value="A123456789-1"/>
          </batch>
        </Medication>
      </resource>
    </part>
  </parameter>
</Parameters>