<?xml version="1.0" encoding="UTF-8"?>
<Bundle xmlns="http://hl7.org/fhir">
  <id value="5dffa874-9781-4a20-96ba-f5bef504a54b"/>
  <meta>
    <profile value="http://fhir.abda.de/eRezeptAbgabedaten/StructureDefinition/DAV-PKV-PR-ERP-AbgabedatenBundle|1.3"/>
    <tag>
      <display value="Beispiel RezeptAbgabedatenPKV Bundle (REZ-10)"/>
    </tag>
    <tag>
      <display value="ACHTUNG! Der fachlich korrekte Inhalt der Beispielinstanz kann nicht gewährleistet werden. Wir sind jederzeit dankbar für Hinweise auf Fehler oder für Verbesserungsvorschläge."/>
    </tag>
  </meta>
  <identifier>
    <system value="https://gematik.de/fhir/erp/NamingSystem/GEM_ERP_NS_PrescriptionId"/>
    <value value="200.858.310.624.061.76"/>
  </identifier>
  <type value="document"/>
  <timestamp value="2024-11-03T11:30:00Z"/>
  <entry>
    <fullUrl value="urn:uuid:bc212e33-1aa2-4bf4-ac77-927beca65cbb"/>
    <resource>
      <Composition>
        <id value="bc212e33-1aa2-4bf4-ac77-927beca65cbb"/>
        <meta>
          <profile value="http://fhir.abda.de/eRezeptAbgabedaten/StructureDefinition/DAV-PKV-PR-ERP-AbgabedatenComposition|1.3"/>
        </meta>
        <status value="final"/>
        <type>
          <coding>
            <system value="http://fhir.abda.de/eRezeptAbgabedaten/CodeSystem/DAV-CS-ERP-CompositionTypes"/>
            <code value="ERezeptAbgabedaten"/>
          </coding>
        </type>
        <date value="2024-11-03T11:30:00Z"/>
        <author>
          <reference value="urn:uuid:52cc1148-f296-4bcc-beee-82b92f587617"/>
        </author>
        <title value="ERezeptAbgabedaten"/>
        <section>
          <title value="Abgabeinformationen"/>
          <entry>
            <reference value="urn:uuid:2240ad06-61da-4edd-b8bc-b28737282876"/>
          </entry>
        </section>
        <section>
          <title value="Apotheke"/>
          <entry>
            <reference value="urn:uuid:52cc1148-f296-4bcc-beee-82b92f587617"/>
          </entry>
        </section>
      </Composition>
    </resource>
  </entry>
  <entry>
    <fullUrl value="urn:uuid:52cc1148-f296-4bcc-beee-82b92f587617"/>
    <resource>
      <Organization>
        <id value="52cc1148-f296-4bcc-beee-82b92f587617"/>
        <meta>
          <profile value="http://fhir.abda.de/eRezeptAbgabedaten/StructureDefinition/DAV-PKV-PR-ERP-Apotheke|1.3"/>
        </meta>
        <identifier>
          <system value="http://fhir.de/sid/arge-ik/iknr"/>
          <value value="308412345"/>
        </identifier>
        <name value="Adler-Apotheke"/>
        <address>
          <type value="physical"/>
          <line value="Taunusstraße 89">
            <extension url="http://hl7.org/fhir/StructureDefinition/iso21090-ADXP-streetName">
              <valueString value="Taunusstraße"/>
            </extension>
            <extension url="http://hl7.org/fhir/StructureDefinition/iso21090-ADXP-houseNumber">
              <valueString value="89"/>
            </extension>
          </line>
          <city value="Langen"/>
          <postalCode value="63225"/>
          <country value="D"/>
        </address>
      </Organization>
    </resource>
  </entry>
  <entry>
    <fullUrl value="urn:uuid:2240ad06-61da-4edd-b8bc-b28737282876"/>
    <resource>
      <MedicationDispense>
        <id value="2240ad06-61da-4edd-b8bc-b28737282876"/>
        <meta>
          <profile value="http://fhir.abda.de/eRezeptAbgabedaten/StructureDefinition/DAV-PKV-PR-ERP-Abgabeinformationen|1.3"/>
        </meta>
        <extension url="http://fhir.abda.de/eRezeptAbgabedaten/StructureDefinition/DAV-EX-ERP-Abrechnungszeilen">
          <valueReference>
            <reference value="urn:uuid:2719e0de-6238-4d0a-8eeb-72b0571ef2c9"/>
          </valueReference>
        </extension>
        <extension url="http://fhir.abda.de/eRezeptAbgabedaten/StructureDefinition/DAV-PKV-EX-ERP-AbrechnungsTyp">
          <valueCodeableConcept>
            <coding>
              <system value="http://fhir.abda.de/eRezeptAbgabedaten/CodeSystem/DAV-PKV-CS-ERP-AbrechnungsTyp"/>
              <code value="1"/>
            </coding>
          </valueCodeableConcept>
        </extension>
        <extension url="http://fhir.abda.de/eRezeptAbgabedaten/StructureDefinition/DAV-EX-ERP-ZusatzdatenHerstellung">
          <valueReference>
            <reference value="urn:uuid:31397308-ce6d-4510-a1c5-9da410fef206"/>
          </valueReference>
        </extension>
        <status value="completed"/>
        <medicationCodeableConcept>
          <coding>
            <system value="http://terminology.hl7.org/CodeSystem/data-absent-reason"/>
            <code value="not-applicable"/>
          </coding>
        </medicationCodeableConcept>
        <performer>
          <actor>
            <reference value="urn:uuid:52cc1148-f296-4bcc-beee-82b92f587617"/>
          </actor>
        </performer>
        <authorizingPrescription>
          <identifier>
            <system value="https://gematik.de/fhir/erp/NamingSystem/GEM_ERP_NS_PrescriptionId"/>
            <value value="200.858.310.624.061.76"/>
          </identifier>
        </authorizingPrescription>
        <type>
          <coding>
            <system value="http://fhir.abda.de/eRezeptAbgabedaten/CodeSystem/DAV-CS-ERP-MedicationDispenseTyp"/>
            <code value="Abgabeinformationen"/>
          </coding>
        </type>
        <whenHandedOver value="2024-11-03"/>
      </MedicationDispense>
    </resource>
  </entry>
  <entry>
    <fullUrl value="urn:uuid:2719e0de-6238-4d0a-8eeb-72b0571ef2c9"/>
    <resource>
      <Invoice>
        <id value="2719e0de-6238-4d0a-8eeb-72b0571ef2c9"/>
        <meta>
          <profile value="http://fhir.abda.de/eRezeptAbgabedaten/StructureDefinition/DAV-PKV-PR-ERP-Abrechnungszeilen|1.3"/>
        </meta>
        <status value="issued"/>
        <type>
          <coding>
            <system value="http://fhir.abda.de/eRezeptAbgabedaten/CodeSystem/DAV-CS-ERP-InvoiceTyp"/>
            <code value="Abrechnungszeilen"/>
          </coding>
        </type>
        <lineItem>
          <sequence value="1"/>
          <chargeItemCodeableConcept>
            <coding>
              <system value="http://TA1.abda.de"/>
              <code value="09999011"/>
            </coding>
            <text value="Rezeptur"/>
          </chargeItemCodeableConcept>
          <priceComponent>
            <extension url="http://fhir.abda.de/eRezeptAbgabedaten/StructureDefinition/DAV-EX-ERP-MwStSatz">
              <valueDecimal value="19.00"/>
            </extension>
            <extension url="http://fhir.abda.de/eRezeptAbgabedaten/StructureDefinition/DAV-EX-ERP-KostenVersicherter">
              <extension url="Kategorie">
                <valueCodeableConcept>
                  <coding>
                    <system value="http://fhir.abda.de/eRezeptAbgabedaten/CodeSystem/DAV-PKV-CS-ERP-KostenVersicherterKategorie"/>
                    <code value="0"/>
                  </coding>
                </valueCodeableConcept>
              </extension>
              <extension url="Kostenbetrag">
                <valueMoney>
                  <value value="0.00"/>
                  <currency value="EUR"/>
                </valueMoney>
              </extension>
            </extension>
            <type value="informational"/>
            <factor value="1"/>
            <amount>
              <value value="31.70"/>
              <currency value="EUR"/>
            </amount>
          </priceComponent>
        </lineItem>
        <totalGross>
          <extension url="http://fhir.abda.de/eRezeptAbgabedaten/StructureDefinition/DAV-EX-ERP-Gesamtzuzahlung">
            <valueMoney>
              <value value="0.00"/>
              <currency value="EUR"/>
            </valueMoney>
          </extension>
          <value value="31.70"/>
          <currency value="EUR"/>
        </totalGross>
      </Invoice>
    </resource>
  </entry>
  <entry>
    <fullUrl value="urn:uuid:31397308-ce6d-4510-a1c5-9da410fef206"/>
    <resource>
      <MedicationDispense>
        <id value="31397308-ce6d-4510-a1c5-9da410fef206"/>
        <meta>
          <profile value="http://fhir.abda.de/eRezeptAbgabedaten/StructureDefinition/DAV-PKV-PR-ERP-ZusatzdatenHerstellung|1.3"/>
        </meta>
        <extension url="http://fhir.abda.de/eRezeptAbgabedaten/StructureDefinition/DAV-EX-ERP-Zaehler">
          <valuePositiveInt value="1"/>
        </extension>
        <extension url="http://fhir.abda.de/eRezeptAbgabedaten/StructureDefinition/DAV-EX-ERP-ZusatzdatenEinheit">
          <valueReference>
            <reference value="urn:uuid:4c34abeb-6076-4884-8307-68570bbf24b4"/>
          </valueReference>
        </extension>
        <status value="completed"/>
        <medicationCodeableConcept>
          <coding>
            <system value="http://terminology.hl7.org/CodeSystem/data-absent-reason"/>
            <code value="not-applicable"/>
          </coding>
        </medicationCodeableConcept>
        <type>
          <coding>
            <system value="http://fhir.abda.de/eRezeptAbgabedaten/CodeSystem/DAV-CS-ERP-MedicationDispenseTyp"/>
            <code value="ZusatzdatenHerstellung"/>
          </coding>
        </type>
      </MedicationDispense>
    </resource>
  </entry>
  <entry>
    <fullUrl value="urn:uuid:4c34abeb-6076-4884-8307-68570bbf24b4"/>
    <resource>
      <Invoice>
        <id value="4c34abeb-6076-4884-8307-68570bbf24b4"/>
        <meta>
          <profile value="http://fhir.abda.de/eRezeptAbgabedaten/StructureDefinition/DAV-PKV-PR-ERP-ZusatzdatenEinheit|1.3"/>
        </meta>
        <extension url="http://fhir.abda.de/eRezeptAbgabedaten/StructureDefinition/DAV-EX-ERP-Zaehler">
          <valuePositiveInt value="1"/>
        </extension>
        <status value="issued"/>
        <type>
          <coding>
            <system value="http://fhir.abda.de/eRezeptAbgabedaten/CodeSystem/DAV-CS-ERP-InvoiceTyp"/>
            <code value="ZusatzdatenEinheit"/>
          </coding>
        </type>
        <lineItem>
          <sequence value="1"/>
          <chargeItemCodeableConcept>
            <coding>
              <system value="http://fhir.de/CodeSystem/ifa/pzn"/>
              <code value="03110083"/>
            </coding>
          </chargeItemCodeableConcept>
          <priceComponent>
            <type value="informational"/>
            <factor value="432.8"/>
            <amount>
              <value value="5.84"/>
              <currency value="EUR"/>
            </amount>
          </priceComponent>
        </lineItem>
        <lineItem>
          <sequence value="2"/>
          <chargeItemCodeableConcept>
            <coding>
              <system value="http://fhir.de/CodeSystem/ifa/pzn"/>
              <code value="01096858"/>
            </coding>
          </chargeItemCodeableConcept>
          <priceComponent>
            <type value="informational"/>
            <factor value="399.56"/>
            <amount>
              <value value="5.50"/>
              <currency value="EUR"/>
            </amount>
          </priceComponent>
        </lineItem>
        <lineItem>
          <sequence value="3"/>
          <chargeItemCodeableConcept>
            <coding>
              <system value="http://fhir.de/CodeSystem/ifa/pzn"/>
              <code value="00538343"/>
            </coding>
          </chargeItemCodeableConcept>
          <priceComponent>
            <type value="informational"/>
            <factor value="1000"/>
            <amount>
              <value value="0.95"/>
              <currency value="EUR"/>
            </amount>
          </priceComponent>
        </lineItem>
        <lineItem>
          <sequence value="4"/>
          <chargeItemCodeableConcept>
            <coding>
              <system value="http://TA1.abda.de"/>
              <code value="06460518"/>
            </coding>
          </chargeItemCodeableConcept>
          <priceComponent>
            <type value="informational"/>
            <factor value="1000"/>
            <amount>
              <value value="6.00"/>
              <currency value="EUR"/>
            </amount>
          </priceComponent>
        </lineItem>
        <lineItem>
          <sequence value="5"/>
          <chargeItemCodeableConcept>
            <coding>
              <system value="http://TA1.abda.de"/>
              <code value="06460518"/>
            </coding>
          </chargeItemCodeableConcept>
          <priceComponent>
            <type value="informational"/>
            <factor value="1000"/>
            <amount>
              <value value="8.35"/>
              <currency value="EUR"/>
            </amount>
          </priceComponent>
        </lineItem>
      </Invoice>
    </resource>
  </entry>
</Bundle>