<?xml version="1.0" encoding="UTF-8"?>
<Parameters xmlns="http://hl7.org/fhir">
  <id value="01f65527-1929-49c5-a05e-c995b9115e08"/>
  <meta>
    <profile value="https://gematik.de/fhir/erp/StructureDefinition/GEM_ERP_PR_PAR_CloseOperation_Input|1.4"/>
    <!--tag>
      <display value="Beispiel MedicationDispense PKV PZN Bsp 7 (multiple medications)"/>
    </tag>
    <tag>
      <display value="ACHTUNG! Der fachlich korrekte Inhalt der Beispielinstanz kann nicht gewährleistet werden. Wir sind jederzeit dankbar für Hinweise auf Fehler oder für Verbesserungsvorschläge."/>
    </tag-->
  </meta>
  <parameter>
    <name value="rxDispensation"/>
    <part>
      <name value="medicationDispense"/>
      <resource>
         <MedicationDispense>
          <id value="00759ea9-0328-4448-bc7a-369f5d35a8d5"/>
          <meta>
            <profile value="https://gematik.de/fhir/erp/StructureDefinition/GEM_ERP_PR_MedicationDispense|1.4"/>
          </meta>
          <identifier>
            <system value="https://gematik.de/fhir/erp/NamingSystem/GEM_ERP_NS_PrescriptionId"/>
            <value value="200.339.908.107.779.64"/>
          </identifier>
          <status value="completed"/>
          <medicationReference>
            <reference value="urn:uuid:8e1a2a63-cf6d-4fc9-be44-54f64022d222"/>
          </medicationReference>
          <subject>
            <identifier>
              <system value="http://fhir.de/sid/gkv/kvid-10"/>
              <value value="P123464117"/>
            </identifier>
          </subject>
          <performer>
            <actor>
              <identifier>
                <system value="https://gematik.de/fhir/sid/telematik-id"/>
                <value value="3-abc-1234567890"/>
              </identifier>
            </actor>
          </performer>
          <quantity> <!-- Angabe der abgegebenen Packungsanzahl -->
            <value value="1" />
            <system value="http://unitsofmeasure.org" />
            <code value="{Package}" />
          </quantity>
          <whenHandedOver value="2025-02-03"/>
          <!--dosageInstruction>  ====> nur angeben wenn geändert/korrigiert durch Apotheke
            <text value="1 Tablette noch in der Nacht, dann für 7 Tage jeweils 1 Tablette morgens und 1 Tablette abends einnehmen"/>
          </dosageInstruction-->
          <substitution> <!-- "Austausch/ersetzen des Arzneimittels bei Abgabe" z.B.: Wenn bei einer PZN Verordnung die abgegebene PZN nicht der verordneten entspricht. -->
            <wasSubstituted value="true"/>
          </substitution>
        </MedicationDispense>
      </resource>
    </part>
    <part>
      <name value="medication"/>
      <resource>
         <Medication>
          <id value="8e1a2a63-cf6d-4fc9-be44-54f64022d222"/>
          <meta>
            <profile value="https://gematik.de/fhir/erp/StructureDefinition/GEM_ERP_PR_Medication|1.4"/>
          </meta>
          <code>
            <coding>
              <system value="http://fhir.de/CodeSystem/ifa/pzn"/>
              <code value="11514676"/>
            </coding>
            <text value="Amoxicillin/Clavulansäure Heumann 875mg/125mg 10St"/>
          </code>
          <form>
            <coding>
              <system value="https://fhir.kbv.de/CodeSystem/KBV_CS_SFHIR_KBV_DARREICHUNGSFORM"/>
              <code value="FTA"/>
              <display value="Filmtabletten"/>
            </coding>
          </form>
          <amount>
            <numerator>
              <extension url="https://gematik.de/fhir/epa-medication/StructureDefinition/medication-packaging-size-extension">
                <valueString value="10"/>
              </extension>
              <unit value="St"/>
            </numerator>
            <denominator>
              <value value="1"/>
            </denominator>
          </amount>
          <ingredient>
            <itemCodeableConcept>
              <text value="Amoxicillin"/>
            </itemCodeableConcept>
            <strength>
              <numerator>
                <value value="875"/>
                <unit value="mg"/>
                <system>
                  <extension url="http://hl7.org/fhir/StructureDefinition/data-absent-reason">
                    <valueCode value="unknown"/>
                  </extension>
                </system>
                <code>
                  <extension url="http://hl7.org/fhir/StructureDefinition/data-absent-reason">
                    <valueCode value="unknown"/>
                  </extension>
                </code>
              </numerator>
              <denominator>
                <value value="1"/>
                <system>
                  <extension url="http://hl7.org/fhir/StructureDefinition/data-absent-reason">
                    <valueCode value="unknown"/>
                  </extension>
                </system>
                <code>
                  <extension url="http://hl7.org/fhir/StructureDefinition/data-absent-reason">
                    <valueCode value="unknown"/>
                  </extension>
                </code>
              </denominator>
            </strength>
          </ingredient>
          <ingredient>
            <itemCodeableConcept>
              <text value="Clavulansäure"/>
            </itemCodeableConcept>
            <strength>
              <numerator>
                <value value="125"/>
                <unit value="mg"/>
                <system>
                  <extension url="http://hl7.org/fhir/StructureDefinition/data-absent-reason">
                    <valueCode value="unknown"/>
                  </extension>
                </system>
                <code>
                  <extension url="http://hl7.org/fhir/StructureDefinition/data-absent-reason">
                    <valueCode value="unknown"/>
                  </extension>
                </code>
              </numerator>
              <denominator>
                <value value="1"/>
                <system>
                  <extension url="http://hl7.org/fhir/StructureDefinition/data-absent-reason">
                    <valueCode value="unknown"/>
                  </extension>
                </system>
                <code>
                  <extension url="http://hl7.org/fhir/StructureDefinition/data-absent-reason">
                    <valueCode value="unknown"/>
                  </extension>
                </code>
              </denominator>
            </strength>
          </ingredient>
          <batch>
            <lotNumber value="A123456789-2"/>
          </batch>
        </Medication>
      </resource>
    </part>
  </parameter>
  <parameter>
    <name value="rxDispensation"/>
    <part>
      <name value="medicationDispense"/>
      <resource>
         <MedicationDispense>
          <id value="f43ae7da-3db3-427c-aa7b-1104a14b05dc"/>
          <meta>
            <profile value="https://gematik.de/fhir/erp/StructureDefinition/GEM_ERP_PR_MedicationDispense|1.4"/>
          </meta>
          <identifier>
            <system value="https://gematik.de/fhir/erp/NamingSystem/GEM_ERP_NS_PrescriptionId"/>
            <value value="200.339.908.107.779.64"/>
          </identifier>
          <status value="completed"/>
          <medicationReference>
            <reference value="urn:uuid:c9061528-a4ce-49f6-a83e-89ea67a1a192"/>
          </medicationReference>
          <subject>
            <identifier>
              <system value="http://fhir.de/sid/gkv/kvid-10"/>
              <value value="P123464117"/>
            </identifier>
          </subject>
          <performer>
            <actor>
              <identifier>
                <system value="https://gematik.de/fhir/sid/telematik-id"/>
                <value value="3-abc-1234567890"/>
              </identifier>
            </actor>
          </performer>
          <quantity> <!-- Angabe der abgegebenen Packungsanzahl -->
            <value value="1" />
            <system value="http://unitsofmeasure.org" />
            <code value="{Package}" />
          </quantity>
          <whenHandedOver value="2025-02-03"/>
          <dosageInstruction>
            <text value="1 Tablette noch in der Nacht, dann für 7 Tage jeweils 1 Tablette morgens und 1 Tablette abends einnehmen"/>
          </dosageInstruction>
          <substitution> <!-- "Austausch/ersetzen des Arzneimittels bei Abgabe" z.B.: Wenn bei einer PZN Verordnung die abgegebene PZN nicht der verordneten entspricht. -->
            <wasSubstituted value="false"/>
          </substitution>
        </MedicationDispense>
      </resource>
    </part>
    <part>
      <name value="medication"/>
      <resource>
         <Medication>
          <id value="c9061528-a4ce-49f6-a83e-89ea67a1a192"/>
          <meta>
            <profile value="https://gematik.de/fhir/erp/StructureDefinition/GEM_ERP_PR_Medication|1.4"/>
          </meta>
          <code>
            <coding>
              <system value="http://fhir.de/CodeSystem/ifa/pzn"/>
              <code value="11514676"/>
            </coding>
            <text value="Amoxicillin/Clavulansäure Heumann 875mg/125mg 10St"/>
          </code>
          <form>
            <coding>
              <system value="https://fhir.kbv.de/CodeSystem/KBV_CS_SFHIR_KBV_DARREICHUNGSFORM"/>
              <code value="FTA"/>
              <display value="Filmtabletten"/>
            </coding>
          </form>
          <amount>
            <numerator>
              <extension url="https://gematik.de/fhir/epa-medication/StructureDefinition/medication-packaging-size-extension">
                <valueString value="10"/>
              </extension>
              <unit value="St"/>
            </numerator>
            <denominator>
              <value value="1"/>
            </denominator>
          </amount>
          <ingredient>
            <itemCodeableConcept>
              <text value="Amoxicillin"/>
            </itemCodeableConcept>
            <strength>
              <numerator>
                <value value="875"/>
                <unit value="mg"/>
                <system>
                  <extension url="http://hl7.org/fhir/StructureDefinition/data-absent-reason">
                    <valueCode value="unknown"/>
                  </extension>
                </system>
                <code>
                  <extension url="http://hl7.org/fhir/StructureDefinition/data-absent-reason">
                    <valueCode value="unknown"/>
                  </extension>
                </code>
              </numerator>
              <denominator>
                <value value="1"/>
                <system>
                  <extension url="http://hl7.org/fhir/StructureDefinition/data-absent-reason">
                    <valueCode value="unknown"/>
                  </extension>
                </system>
                <code>
                  <extension url="http://hl7.org/fhir/StructureDefinition/data-absent-reason">
                    <valueCode value="unknown"/>
                  </extension>
                </code>
              </denominator>
            </strength>
          </ingredient>
          <ingredient>
            <itemCodeableConcept>
              <text value="Clavulansäure"/>
            </itemCodeableConcept>
            <strength>
              <numerator>
                <value value="125"/>
                <unit value="mg"/>
                <system>
                  <extension url="http://hl7.org/fhir/StructureDefinition/data-absent-reason">
                    <valueCode value="unknown"/>
                  </extension>
                </system>
                <code>
                  <extension url="http://hl7.org/fhir/StructureDefinition/data-absent-reason">
                    <valueCode value="unknown"/>
                  </extension>
                </code>
              </numerator>
              <denominator>
                <value value="1"/>
                <system>
                  <extension url="http://hl7.org/fhir/StructureDefinition/data-absent-reason">
                    <valueCode value="unknown"/>
                  </extension>
                </system>
                <code>
                  <extension url="http://hl7.org/fhir/StructureDefinition/data-absent-reason">
                    <valueCode value="unknown"/>
                  </extension>
                </code>
              </denominator>
            </strength>
          </ingredient>
          <batch>
            <lotNumber value="A123456789-1"/>
          </batch>
        </Medication>
      </resource>
    </part>
  </parameter>
</Parameters>