<?xml version="1.0" encoding="UTF-8"?>
<Bundle xmlns="http://hl7.org/fhir">
    <id value="32fec8bf-4d64-49a5-80ad-63ea3e102ac3"/>
    <meta>
        <profile value="http://fhir.abda.de/eRezeptAbgabedaten/StructureDefinition/DAV-PR-ERP-AbgabedatenBundle|1.5"/>
        <!--tag>
            <display value="Beispiel für Abgabedaten für eine pDL Impfen (ad2f1bbc-9320-4a7c-9a3b-3e72c2b3ab2d)"/>
        </tag>
        <tag>
            <display value="ACHTUNG! Der fachlich korrekte Inhalt der Beispielinstanz kann nicht gewährleistet werden. Wir sind jederzeit dankbar für Hinweise auf Fehler oder für Verbesserungsvorschläge."/>
        </tag-->
    </meta>
    <identifier>
        <system value="https://gematik.de/fhir/erp/NamingSystem/GEM_ERP_NS_PrescriptionId"/>
        <value value="920.033.487.939.569.16"/>
    </identifier>
    <type value="document"/>
    <timestamp value="2026-01-01T10:00:00Z"/>
    <entry>
        <fullUrl value="urn:uuid:f544af9e-ec69-4705-a901-49f4c6dce6ce"/>
        <resource>
            <Composition xmlns="http://hl7.org/fhir">
                <id value="f544af9e-ec69-4705-a901-49f4c6dce6ce"/>
                <meta>
                    <profile value="http://fhir.abda.de/eRezeptAbgabedaten/StructureDefinition/DAV-PR-ERP-AbgabedatenComposition|1.5"/>
                </meta>
                <status value="final"/>
                <type>
                    <coding>
                        <system value="http://fhir.abda.de/eRezeptAbgabedaten/CodeSystem/DAV-CS-ERP-CompositionTypes"/>
                        <code value="ERezeptAbgabedaten"/>
                    </coding>
                </type>
                <date value="2026-01-01T10:00:00Z"/>
                <author>
                    <reference value="urn:uuid:58ccbb9c-a9ba-4a79-8bda-dc145bb614d3"/>
                </author>
                <title value="ERezeptAbgabedaten"/>
                <section>
                    <title value="Abgabeinformationen"/>
                    <entry>
                        <reference value="urn:uuid:68d78c18-a873-46ca-808b-e5ff6e43ea3d"/>
                    </entry>
                </section>
                <section>
                    <title value="Apotheke"/>
                    <entry>
                        <reference value="urn:uuid:58ccbb9c-a9ba-4a79-8bda-dc145bb614d3"/>
                    </entry>
                </section>
            </Composition>
        </resource>
    </entry>
    <entry>
        <fullUrl value="urn:uuid:58ccbb9c-a9ba-4a79-8bda-dc145bb614d3"/>
        <resource>
            <Organization xmlns="http://hl7.org/fhir">
                <id value="58ccbb9c-a9ba-4a79-8bda-dc145bb614d3"/>
                <meta>
                    <profile value="http://fhir.abda.de/eRezeptAbgabedaten/StructureDefinition/DAV-PR-ERP-Apotheke|1.5"/>
                </meta>
                <identifier>
                    <system value="http://fhir.de/sid/arge-ik/iknr"/>
                    <value value="308412345"/>
                </identifier>
                <name value="Adler-Apotheke"/>
                <address>
                    <type value="physical"/>
                    <line value="Münchner Str. 15">
                        <extension url="http://hl7.org/fhir/StructureDefinition/iso21090-ADXP-streetName">
                            <valueString value="Münchner Str."/>
                        </extension>
                        <extension url="http://hl7.org/fhir/StructureDefinition/iso21090-ADXP-houseNumber">
                            <valueString value="15"/>
                        </extension>
                    </line>
                    <city value="Starnberg"/>
                    <postalCode value="82319"/>
                    <country value="D"/>
                </address>
            </Organization>
        </resource>
    </entry>
    <entry>
        <fullUrl value="urn:uuid:68d78c18-a873-46ca-808b-e5ff6e43ea3d"/>
        <resource>
            <MedicationDispense xmlns="http://hl7.org/fhir">
                <id value="68d78c18-a873-46ca-808b-e5ff6e43ea3d"/>
                <meta>
                    <profile value="http://fhir.abda.de/eRezeptAbgabedaten/StructureDefinition/DAV-PR-ERP-Abgabeinformationen|1.5"/>
                </meta>
                <extension url="http://fhir.abda.de/eRezeptAbgabedaten/StructureDefinition/DAV-EX-ERP-Abrechnungszeilen">
                    <valueReference>
                        <reference value="urn:uuid:9427428e-cdb5-46eb-9085-b1fbea1dbcab"/>
                    </valueReference>
                </extension>
                <status value="completed"/>
                <medicationCodeableConcept>
                    <coding>
                        <system value="http://terminology.hl7.org/CodeSystem/data-absent-reason"/>
                        <code value="not-applicable"/>
                    </coding>
                </medicationCodeableConcept>
                <performer>
                    <actor>
                        <reference value="urn:uuid:58ccbb9c-a9ba-4a79-8bda-dc145bb614d3"/>
                    </actor>
                </performer>
                <authorizingPrescription>
                    <identifier>
                        <system value="https://gematik.de/fhir/erp/NamingSystem/GEM_ERP_NS_PrescriptionId"/>
                        <value value="920.033.487.939.569.16"/>
                    </identifier>
                </authorizingPrescription>
                <type>
                    <coding>
                        <system value="http://fhir.abda.de/eRezeptAbgabedaten/CodeSystem/DAV-CS-ERP-MedicationDispenseTyp"/>
                        <code value="Abgabeinformationen"/>
                    </coding>
                </type>
                <whenHandedOver value="2026-01-01"/>
            </MedicationDispense>
        </resource>
    </entry>
    <entry>
        <fullUrl value="urn:uuid:9427428e-cdb5-46eb-9085-b1fbea1dbcab"/>
        <resource>
            <Invoice xmlns="http://hl7.org/fhir">
                <id value="9427428e-cdb5-46eb-9085-b1fbea1dbcab"/>
                <meta>
                    <profile value="http://fhir.abda.de/eRezeptAbgabedaten/StructureDefinition/DAV-PR-ERP-Abrechnungszeilen|1.5"/>
                </meta>
                <status value="issued"/>
                <type>
                    <coding>
                        <system value="http://fhir.abda.de/eRezeptAbgabedaten/CodeSystem/DAV-CS-ERP-InvoiceTyp"/>
                        <code value="Abrechnungszeilen"/>
                    </coding>
                </type>
                <lineItem>
                    <sequence value="1"/>
                    <chargeItemCodeableConcept>
                        <coding>
                            <system value="http://TA1.abda.de"/>
                            <code value="17717400"/>
                        </coding>
                    </chargeItemCodeableConcept>
                    <priceComponent>
                        <extension url="http://fhir.abda.de/eRezeptAbgabedaten/StructureDefinition/DAV-EX-ERP-MwStSatz">
                            <valueDecimal value="0.00"/>
                        </extension>
                        <extension url="http://fhir.abda.de/eRezeptAbgabedaten/StructureDefinition/DAV-EX-ERP-KostenVersicherter">
                            <extension url="Kategorie">
                                <valueCodeableConcept>
                                    <coding>
                                        <system value="http://fhir.abda.de/eRezeptAbgabedaten/CodeSystem/DAV-CS-ERP-KostenVersicherterKategorie"/>
                                        <code value="0"/>
                                    </coding>
                                </valueCodeableConcept>
                            </extension>
                            <extension url="Kostenbetrag">
                                <valueMoney>
                                    <value value="0.00"/>
                                    <currency value="EUR"/>
                                </valueMoney>
                            </extension>
                        </extension>
                        <type value="informational"/>
                        <factor value="1"/>
                        <amount>
                            <value value="10.00"/>
                            <currency value="EUR"/>
                        </amount>
                    </priceComponent>
                </lineItem>
                <lineItem>
                    <sequence value="2"/>
                    <chargeItemCodeableConcept>
                        <coding>
                            <system value="http://TA1.abda.de"/>
                            <code value="17717417"/>
                        </coding>
                    </chargeItemCodeableConcept>
                    <priceComponent>
                        <extension url="http://fhir.abda.de/eRezeptAbgabedaten/StructureDefinition/DAV-EX-ERP-MwStSatz">
                            <valueDecimal value="0.00"/>
                        </extension>
                        <extension url="http://fhir.abda.de/eRezeptAbgabedaten/StructureDefinition/DAV-EX-ERP-KostenVersicherter">
                            <extension url="Kategorie">
                                <valueCodeableConcept>
                                    <coding>
                                        <system value="http://fhir.abda.de/eRezeptAbgabedaten/CodeSystem/DAV-CS-ERP-KostenVersicherterKategorie"/>
                                        <code value="0"/>
                                    </coding>
                                </valueCodeableConcept>
                            </extension>
                            <extension url="Kostenbetrag">
                                <valueMoney>
                                    <value value="0.00"/>
                                    <currency value="EUR"/>
                                </valueMoney>
                            </extension>
                        </extension>
                        <type value="informational"/>
                        <factor value="1"/>
                        <amount>
                            <value value="2.50"/>
                            <currency value="EUR"/>
                        </amount>
                    </priceComponent>
                </lineItem>
                <lineItem>
                    <sequence value="3"/>
                    <chargeItemCodeableConcept>
                        <coding>
                            <system value="http://TA1.abda.de"/>
                            <code value="17717423"/>
                        </coding>
                    </chargeItemCodeableConcept>
                    <priceComponent>
                        <extension url="http://fhir.abda.de/eRezeptAbgabedaten/StructureDefinition/DAV-EX-ERP-MwStSatz">
                            <valueDecimal value="0.00"/>
                        </extension>
                        <extension url="http://fhir.abda.de/eRezeptAbgabedaten/StructureDefinition/DAV-EX-ERP-KostenVersicherter">
                            <extension url="Kategorie">
                                <valueCodeableConcept>
                                    <coding>
                                        <system value="http://fhir.abda.de/eRezeptAbgabedaten/CodeSystem/DAV-CS-ERP-KostenVersicherterKategorie"/>
                                        <code value="0"/>
                                    </coding>
                                </valueCodeableConcept>
                            </extension>
                            <extension url="Kostenbetrag">
                                <valueMoney>
                                    <value value="0.00"/>
                                    <currency value="EUR"/>
                                </valueMoney>
                            </extension>
                        </extension>
                        <type value="informational"/>
                        <factor value="1"/>
                        <amount>
                            <value value="2.50"/>
                            <currency value="EUR"/>
                        </amount>
                    </priceComponent>
                </lineItem>
                <lineItem>
                    <extension url="http://fhir.abda.de/eRezeptAbgabedaten/StructureDefinition/DAV-EX-ERP-Chargenbezeichnung">
                        <valueString value="A123456789-1"/>
                    </extension>
                    <sequence value="4"/>
                    <chargeItemCodeableConcept>
                        <coding>
                            <system value="http://fhir.de/CodeSystem/ifa/pzn"/>
                            <code value="19395515"/>
                        </coding>
                    </chargeItemCodeableConcept>
                    <priceComponent>
                        <extension url="http://fhir.abda.de/eRezeptAbgabedaten/StructureDefinition/DAV-EX-ERP-MwStSatz">
                            <valueDecimal value="19.00"/>
                        </extension>
                        <extension url="http://fhir.abda.de/eRezeptAbgabedaten/StructureDefinition/DAV-EX-ERP-KostenVersicherter">
                            <extension url="Kategorie">
                                <valueCodeableConcept>
                                    <coding>
                                        <system value="http://fhir.abda.de/eRezeptAbgabedaten/CodeSystem/DAV-CS-ERP-KostenVersicherterKategorie"/>
                                        <code value="0"/>
                                    </coding>
                                </valueCodeableConcept>
                            </extension>
                            <extension url="Kostenbetrag">
                                <valueMoney>
                                    <value value="0.00"/>
                                    <currency value="EUR"/>
                                </valueMoney>
                            </extension>
                        </extension>
                        <type value="informational"/>
                        <factor value="1"/>
                        <amount>
                            <value value="0.00"/>
                            <currency value="EUR"/>
                        </amount>
                    </priceComponent>
                </lineItem>
                <totalGross>
                    <extension url="http://fhir.abda.de/eRezeptAbgabedaten/StructureDefinition/DAV-EX-ERP-Gesamtzuzahlung">
                        <valueMoney>
                            <value value="0.00"/>
                            <currency value="EUR"/>
                        </valueMoney>
                    </extension>
                    <value value="15.00"/>
                    <currency value="EUR"/>
                </totalGross>
            </Invoice>
        </resource>
    </entry>
</Bundle>