<Bundle xmlns="http://hl7.org/fhir">
  <id value="d05694cc-445a-4be1-9cd9-e038813ac2fc" />
  <meta>
    <profile value="https://fhir.gkvsv.de/StructureDefinition/GKVSV_PR_TA7_Sammelrechnung_Bundle|1.0.6" />
    <tag>
      <display value="Beispiel der TA7/eAbrechnungsdaten." />
    </tag>
    <tag>
      <display value="ACHTUNG! Der fachlich korrekte Inhalt der Beispielinstanz kann nicht gew채hrleistet werden. Wir sind jederzeit dankbar f체r Hinweise auf Fehler oder f체r Verbesserungsvorschl채ge." />
    </tag>
  </meta>
  <identifier>
    <extension url="https://fhir.gkvsv.de/StructureDefinition/GKVSV_EX_ERP_TA7_Dateinummer">
      <valueString value="00002" />
    </extension>
    <system value="https://fhir.gkvsv.de/NamingSystem/GKVSV_NS_Dateiname" />
    <value value="ARZFHR21002" />
  </identifier>
  <type value="document" />
  <timestamp value="2021-06-02T10:00:00Z" />
  <entry>
    <fullUrl value="urn:uuid:b5375c3f-801a-4bfa-bf21-c17e2be405f3" />
    <resource>
      <Composition>
        <id value="b5375c3f-801a-4bfa-bf21-c17e2be405f3" />
        <meta>
          <profile value="https://fhir.gkvsv.de/StructureDefinition/GKVSV_PR_TA7_Sammelrechnung_Composition|1.0.6" />
        </meta>
        <extension url="https://fhir.gkvsv.de/StructureDefinition/GKVSV_EX_TA7_IK_Empfaenger">
          <valueIdentifier>
            <system value="http://fhir.de/NamingSystem/arge-ik/iknr" />
            <value value="109519005" />
          </valueIdentifier>
        </extension>
        <extension url="https://fhir.gkvsv.de/StructureDefinition/GKVSV_EX_TA7_IK_Kostentraeger">
          <valueIdentifier>
            <system value="http://fhir.de/NamingSystem/arge-ik/iknr" />
            <value value="109519005" />
          </valueIdentifier>
        </extension>
        <status value="final" />
        <type>
          <coding>
            <system value="https://fhir.gkvsv.de/CodeSystem/GKVSV_CS_ERP_TA7" />
            <code value="SR" />
            <display value="Sammelrechnung" />
          </coding>
        </type>
        <date value="2021-05-31" />
        <author>
          <identifier>
            <system value="http://fhir.de/NamingSystem/arge-ik/iknr" />
            <value value="987654321" />
          </identifier>
        </author>
        <title value="elektronische Sammelrechnung" />
        <section>
          <code>
            <coding>
              <system value="https://fhir.gkvsv.de/CodeSystem/GKVSV_CS_ERP_TA7" />
              <code value="LSR" />
              <display value="Liste der Sammelrechnungen" />
            </coding>
          </code>
          <entry>
            <reference value="urn:uuid:64b2c1f9-f8af-4f50-ab17-f8fb8197cb50" />
          </entry>
        </section>
        <section>
          <code>
            <coding>
              <system value="https://fhir.gkvsv.de/CodeSystem/GKVSV_CS_ERP_TA7" />
              <code value="R" />
              <display value="Rechnungen" />
            </coding>
          </code>
          <entry>
            <reference value="urn:uuid:92ff3899-3e76-42d8-b055-b8d3e688153c" />
          </entry>
        </section>
      </Composition>
    </resource>
  </entry>
  <entry>
    <fullUrl value="urn:uuid:64b2c1f9-f8af-4f50-ab17-f8fb8197cb50" />
    <resource>
      <List>
        <id value="64b2c1f9-f8af-4f50-ab17-f8fb8197cb50" />
        <meta>
          <profile value="https://fhir.gkvsv.de/StructureDefinition/GKVSV_PR_TA7_Sammelrechnung_List|1.0.6" />
        </meta>
        <status value="current" />
        <mode value="working" />
        <entry>
          <item>
            <reference value="Bundle/d05694cc-445a-4be1-9cd9-e038813ac2fc" />
          </item>
        </entry>
      </List>
    </resource>
  </entry>
  <entry>
    <fullUrl value="urn:uuid:92ff3899-3e76-42d8-b055-b8d3e688153c" />
    <resource>
      <Invoice>
        <id value="92ff3899-3e76-42d8-b055-b8d3e688153c" />
        <meta>
          <profile value="https://fhir.gkvsv.de/StructureDefinition/GKVSV_PR_TA7_Rechnung|1.0.6" />
        </meta>
        <extension url="https://fhir.gkvsv.de/StructureDefinition/GKVSV_EX_ERP_TA7_Abrechnungszeitraum">
          <valueDateTime value="2021-05-31" />
        </extension>
        <extension url="https://fhir.gkvsv.de/StructureDefinition/GKVSV_EX_ERP_RezeptBundleReferenz">
          <extension url="lineItem">
            <valueReference>
              <reference value="urn:uuid:c81065a9-cb78-465b-85f7-2191e70d74cd" />
            </valueReference>
          </extension>
        </extension>
        <identifier>
          <system value="https://fhir.gkvsv.de/NamingSystem/GKVSV_NS_Sammelrechnungsnummer" />
          <value value="104212506-01-020621" />
        </identifier>
        <status value="issued" />
        <type>
          <coding>
            <system value="https://fhir.gkvsv.de/CodeSystem/GKVSV_CS_ERP_Rechnungsart" />
            <code value="6" />
          </coding>
        </type>
        <recipient>
          <identifier>
            <system value="http://fhir.de/NamingSystem/arge-ik/iknr" />
            <value value="109519005" />
          </identifier>
        </recipient>
        <date value="2021-06-02" />
      </Invoice>
    </resource>
  </entry>
  <entry>
    <fullUrl value="urn:uuid:c81065a9-cb78-465b-85f7-2191e70d74cd" />
    <resource>
      <Bundle>
        <id value="c81065a9-cb78-465b-85f7-2191e70d74cd" />
        <meta>
          <profile value="https://fhir.gkvsv.de/StructureDefinition/GKVSV_PR_TA7_RezeptBundle|1.0.6" />
        </meta>
        <type value="collection" />
        <entry>
          <link>
            <relation value="item" />
            <url value="https://fhir.kbv.de/StructureDefinition/KBV_PR_ERP_Bundle" />
          </link>
          <fullUrl value="urn:uuid:87bf7715-557f-4704-b50b-812cace462f9" />
          <resource>
            <Binary>
              <id value="87bf7715-557f-4704-b50b-812cace462f9" />
              <meta>
                <profile value="https://gematik.de/fhir/StructureDefinition/ErxBinary" />
              </meta>
              <contentType value="application/pkcs7-mime" />
              <data value="VmVyb3JkbnVuZ3NkYXRlbiBCZWlzcGllbCBFcnN0ZWxsdW5nIEJlaXNwaWVsIGVBYnJlY2hudW5nc2RhdGVu" />
            </Binary>
          </resource>
        </entry>
        <entry>
          <link>
            <relation value="item" />
            <url value="https://gematik.de/fhir/StructureDefinition/ErxReceipt" />
          </link>
          <fullUrl value="urn:uuid:a5e7b3e5-2ea4-4fbe-a732-d4077c180c53" />
          <resource>
            <Bundle>
              <id value="a5e7b3e5-2ea4-4fbe-a732-d4077c180c53" />
              <meta>
                <profile value="https://gematik.de/fhir/StructureDefinition/ErxReceipt" />
              </meta>
              <identifier>
                <system value="https://gematik.de/fhir/NamingSystem/PrescriptionID" />
                <value value="160.100.000.000.006.24" />
              </identifier>
              <type value="document" />
              <timestamp value="2021-05-27T09:30:00Z" />
              <link>
                <relation value="self" />
                <url value="https://gematik.erppre.de:443/Task/160.100.000.000.006.24/$close" />
              </link>
              <entry>
                <fullUrl value="urn:uuid:9c38aca5-4937-439b-85b2-ce217baf789a" />
                <resource>
                  <Composition>
                    <id value="9c38aca5-4937-439b-85b2-ce217baf789a" />
                    <meta>
                      <profile value="https://gematik.de/fhir/StructureDefinition/ErxComposition" />
                    </meta>
                    <extension url="https://gematik.de/fhir/StructureDefinition/BeneficiaryExtension">
                      <valueIdentifier>
                        <system value="https://gematik.de/fhir/NamingSystem/TelematikID" />
                        <value value="606358757" />
                      </valueIdentifier>
                    </extension>
                    <status value="final" />
                    <type>
                      <coding>
                        <system value="https://gematik.de/fhir/CodeSystem/Documenttype" />
                        <code value="3" />
                        <display value="Receipt" />
                      </coding>
                    </type>
                    <date value="2021-05-27T09:30:00Z" />
                    <author>
                      <reference value="https://gematik.erppre.de:443/Device" />
                    </author>
                    <title value="Quittung" />
                    <event>
                      <period>
                        <start value="2021-05-27T08:45:00Z" />
                        <end value="2021-05-27T09:30:00Z" />
                      </period>
                    </event>
                  </Composition>
                </resource>
              </entry>
              <entry>
                <fullUrl value="https://gematik.erppre.de:443/Device" />
                <resource>
                  <Device>
                    <id value="1" />
                    <meta>
                      <profile value="https://gematik.de/fhir/StructureDefinition/ErxDevice" />
                    </meta>
                    <status value="active" />
                    <serialNumber value="0.3.1" />
                    <deviceName>
                      <name value="E-Rezept Fachdienst" />
                      <type value="user-friendly-name" />
                    </deviceName>
                    <version>
                      <value value="0.3.1" />
                    </version>
                    <contact>
                      <system value="email" />
                      <value value="betrieb@gematik.de" />
                    </contact>
                  </Device>
                </resource>
              </entry>
              <signature>
                <type>
                  <system value="urn:iso-astm:E1762-95:2013" />
                  <code value="1.2.840.10065.1.12.1.1" />
                </type>
                <when value="2021-05-27T09:30:00Z" />
                <who>
                  <reference value="https://gematik.erppre.de:443/Device" />
                </who>
                <sigFormat value="application/pkcs7-mime" />
                <data value="" />
              </signature>
            </Bundle>
          </resource>
        </entry>
        <entry>
          <link>
            <relation value="item" />
            <url value="http://fhir.abda.de/eRezeptAbgabedaten/StructureDefinition/DAV-PR-ERP-AbgabedatenBundle" />
          </link>
          <fullUrl value="urn:uuid:0ab561f4-053f-4632-ae4a-981ca0eafca5" />
          <resource>
            <Binary>
              <id value="0ab561f4-053f-4632-ae4a-981ca0eafca5" />
              <meta>
                <profile value="https://gematik.de/fhir/StructureDefinition/ErxBinary" />
              </meta>
              <contentType value="application/pkcs7-mime" />
              <data value="ZUFiZ2FiZWRhdGVuIEJlaXNwaWVsIEVyc3RlbGx1bmcgQmVpc3BpZWwgZUFicmVjaG51bmdzZGF0ZW4=" />
            </Binary>
          </resource>
        </entry>
        <entry>
          <link>
            <relation value="item" />
            <url value="https://fhir.gkvsv.de/StructureDefinition/GKVSV_PR_ERP_eAbrechnungsdaten" />
          </link>
          <fullUrl value="urn:uuid:0ed906bc-c76b-43fe-b18e-9cc4c26577e3" />
          <resource>
            <Invoice>
              <id value="0ed906bc-c76b-43fe-b18e-9cc4c26577e3" />
              <meta>
                <profile value="https://fhir.gkvsv.de/StructureDefinition/GKVSV_PR_ERP_eAbrechnungsdaten|1.0.6" />
              </meta>
              <extension url="https://fhir.gkvsv.de/StructureDefinition/GKVSV_EX_ERP_Irrlaeufer">
                <valueBoolean value="false" />
              </extension>
              <identifier>
                <system value="https://gematik.de/fhir/NamingSystem/PrescriptionID" />
                <value value="160.100.000.000.006.24" />
              </identifier>
              <identifier>
                <system value="https://fhir.gkvsv.de/NamingSystem/GKVSV_NS_Belegnummer" />
                <value value="2105000001031234561" />
              </identifier>
              <status value="issued" />
              <issuer>
                <extension url="https://fhir.gkvsv.de/StructureDefinition/GKVSV_EX_ERP_LE_Sitz">
                  <valueCoding>
                    <system value="https://fhir.gkvsv.de/CodeSystem/GKVSV_CS_ERP_Leistungserbringer_Sitz" />
                    <code value="1" />
                  </valueCoding>
                </extension>
                <identifier>
                  <type>
                    <coding>
                      <system value="https://fhir.gkvsv.de/CodeSystem/GKVSV_CS_ERP_Leistungserbringertyp" />
                      <code value="A" />
                    </coding>
                  </type>
                  <system value="http://fhir.de/NamingSystem/arge-ik/iknr" />
                  <value value="123456789" />
                </identifier>
              </issuer>
              <lineItem>
                <extension url="https://fhir.gkvsv.de/StructureDefinition/GKVSV_EX_ERP_Positionstyp">
                  <valueCodeableConcept>
                    <coding>
                      <system value="https://fhir.gkvsv.de/CodeSystem/GKVSV_CS_ERP_Positionstyp" />
                      <code value="1" />
                      <display value="체brige Position" />
                    </coding>
                  </valueCodeableConcept>
                </extension>
                <extension url="https://fhir.gkvsv.de/StructureDefinition/GKVSV_EX_ERP_VAT_VALUE">
                  <valueMoney>
                    <value value="4.70" />
                    <currency value="EUR" />
                  </valueMoney>
                </extension>
                <extension url="https://fhir.gkvsv.de/StructureDefinition/GKVSV_EX_ERP_Import">
                  <valueCodeableConcept>
                    <coding>
                      <system value="https://fhir.gkvsv.de/CodeSystem/GKVSV_CS_ERP_Import" />
                      <code value="0" />
                    </coding>
                  </valueCodeableConcept>
                </extension>
                <sequence value="1" />
                <chargeItemCodeableConcept>
                  <coding>
                    <system value="http://terminology.hl7.org/CodeSystem/v3-NullFlavor" />
                    <code value="UNC" />
                  </coding>
                </chargeItemCodeableConcept>
                <priceComponent>
                  <type value="deduction" />
                  <code>
                    <coding>
                      <system value="https://fhir.gkvsv.de/CodeSystem/GKVSV_CS_ERP_ZuAbschlagKey" />
                      <code value="R001" />
                    </coding>
                  </code>
                  <amount>
                    <value value="-1.77" />
                    <currency value="EUR" />
                  </amount>
                </priceComponent>
              </lineItem>
            </Invoice>
          </resource>
        </entry>
      </Bundle>
    </resource>
  </entry>
</Bundle>