<?xml version="1.0" encoding="UTF-8"?>
<Bundle xmlns="http://hl7.org/fhir">
    <id value="901a87c9-faef-44a3-a1ca-6000acb19483"/>
    <meta>
        <profile value="https://fhir.kbv.de/StructureDefinition/KBV_PR_ERP_Bundle|1.1.0"/>
    </meta>
    <identifier>
        <system value="https://gematik.de/fhir/erp/NamingSystem/GEM_ERP_NS_PrescriptionId"/>
        <value value="200.800.419.351.304.52"/>
    </identifier>
    <type value="document"/>
    <timestamp value="2025-02-03T08:30:00Z"/>
    <entry>
        <fullUrl value="http://pvs.praxis.local/fhir/Composition/34a3c8a9-c446-4643-83ae-48c2fffee901"/>
        <resource>
            <Composition>
                <id value="34a3c8a9-c446-4643-83ae-48c2fffee901"/>
                <meta>
                    <profile value="https://fhir.kbv.de/StructureDefinition/KBV_PR_ERP_Composition|1.1.0"/>
                </meta>
                <extension url="https://fhir.kbv.de/StructureDefinition/KBV_EX_FOR_Legal_basis">
                    <valueCoding>
                        <system value="https://fhir.kbv.de/CodeSystem/KBV_CS_SFHIR_KBV_STATUSKENNZEICHEN"/>
                        <code value="00"/>
                    </valueCoding>
                </extension>
                <extension url="https://fhir.kbv.de/StructureDefinition/KBV_EX_FOR_PKV_Tariff">
                    <valueCoding>
                        <system value="https://fhir.kbv.de/CodeSystem/KBV_CS_SFHIR_KBV_PKV_TARIFF"/>
                        <code value="01"/>
                    </valueCoding>
                </extension>
                <status value="final"/>
                <type>
                    <coding>
                        <system value="https://fhir.kbv.de/CodeSystem/KBV_CS_SFHIR_KBV_FORMULAR_ART"/>
                        <code value="e16A"/>
                    </coding>
                </type>
                <subject>
                    <reference value="Patient/5d0b8122-b701-49c4-b94e-96bf04ca0832"/>
                </subject>
                <date value="2025-02-03T08:00:00Z"/>
                <author>
                    <reference value="Practitioner/78846f05-8d51-41de-8dc5-788fd1d4a8e8"/>
                    <type value="Practitioner"/>
                </author>
                <author>
                    <type value="Device"/>
                    <identifier>
                        <system value="https://fhir.kbv.de/NamingSystem/KBV_NS_FOR_Pruefnummer"/>
                        <value value="Y/400/2107/36/999"/>
                    </identifier>
                </author>
                <title value="elektronische Arzneimittelverordnung"/>
                <custodian>
                    <reference value="Organization/ba53ce73-1310-45a8-b9e5-5f70b965062c"/>
                </custodian>
                <section>
                    <code>
                        <coding>
                            <system value="https://fhir.kbv.de/CodeSystem/KBV_CS_ERP_Section_Type"/>
                            <code value="Prescription"/>
                        </coding>
                    </code>
                    <entry>
                        <reference value="MedicationRequest/a7451506-36c9-49a8-9a9c-e5565a647cf8"/>
                    </entry>
                </section>
                <section>
                    <code>
                        <coding>
                            <system value="https://fhir.kbv.de/CodeSystem/KBV_CS_ERP_Section_Type"/>
                            <code value="Coverage"/>
                        </coding>
                    </code>
                    <entry>
                        <reference value="Coverage/e4089df2-8de1-494e-b5ba-2029efb47082"/>
                    </entry>
                </section>
            </Composition>
        </resource>
    </entry>
    <entry>
        <fullUrl value="http://pvs.praxis.local/fhir/MedicationRequest/a7451506-36c9-49a8-9a9c-e5565a647cf8"/>
        <resource>
            <MedicationRequest>
                <id value="a7451506-36c9-49a8-9a9c-e5565a647cf8"/>
                <meta>
                    <profile value="https://fhir.kbv.de/StructureDefinition/KBV_PR_ERP_Prescription|1.1.0"/>
                </meta>
                <extension url="https://fhir.kbv.de/StructureDefinition/KBV_EX_ERP_EmergencyServicesFee">
                    <valueBoolean value="false"/>
                </extension>
                <extension url="https://fhir.kbv.de/StructureDefinition/KBV_EX_ERP_BVG">
                    <valueBoolean value="false"/>
                </extension>
                <extension url="https://fhir.kbv.de/StructureDefinition/KBV_EX_ERP_Multiple_Prescription">
                    <extension url="Kennzeichen">
                        <valueBoolean value="false"/>
                    </extension>
                </extension>
                <status value="active"/>
                <intent value="order"/>
                <medicationReference>
                    <reference value="Medication/76e83871-27f6-4625-9fb3-cadf6a13059f"/>
                </medicationReference>
                <subject>
                    <reference value="Patient/5d0b8122-b701-49c4-b94e-96bf04ca0832"/>
                </subject>
                <authoredOn value="2025-02-03"/>
                <requester>
                    <reference value="Practitioner/78846f05-8d51-41de-8dc5-788fd1d4a8e8"/>
                </requester>
                <insurance>
                    <reference value="Coverage/e4089df2-8de1-494e-b5ba-2029efb47082"/>
                </insurance>
                <dosageInstruction>
                    <patientInstruction value="1–3mal/Tag auf die erkrankten Hautstellen auftragen"/>
                </dosageInstruction>
                <dispenseRequest>
                    <quantity>
                        <value value="1"/>
                        <system value="http://unitsofmeasure.org"/>
                        <code value="{Package}"/>
                    </quantity>
                </dispenseRequest>
                <substitution>
                    <allowedBoolean value="false"/>
                </substitution>
            </MedicationRequest>
        </resource>
    </entry>
    <entry>
        <fullUrl value="http://pvs.praxis.local/fhir/Medication/76e83871-27f6-4625-9fb3-cadf6a13059f"/>
        <resource>
            <Medication>
                <id value="76e83871-27f6-4625-9fb3-cadf6a13059f"/>
                <meta>
                    <profile value="https://fhir.kbv.de/StructureDefinition/KBV_PR_ERP_Medication_Compounding|1.1.0"/>
                </meta>
                <extension url="https://fhir.kbv.de/StructureDefinition/KBV_EX_Base_Medication_Type">
                    <valueCodeableConcept>
                        <coding>
                            <system value="http://snomed.info/sct"/>
                            <version value="http://snomed.info/sct/900000000000207008/version/20220331"/>
                            <code value="373873005:860781008=362943005"/>
                            <display value="Pharmaceutical / biologic product (product) : Has product characteristic (attribute) = Manual method (qualifier value)"/>
                        </coding>
                    </valueCodeableConcept>
                </extension>
                <extension url="https://fhir.kbv.de/StructureDefinition/KBV_EX_ERP_Medication_Category">
                    <valueCoding>
                        <system value="https://fhir.kbv.de/CodeSystem/KBV_CS_ERP_Medication_Category"/>
                        <code value="00"/>
                    </valueCoding>
                </extension>
                <extension url="https://fhir.kbv.de/StructureDefinition/KBV_EX_ERP_Medication_Vaccine">
                    <valueBoolean value="false"/>
                </extension>
                <code>
                    <coding>
                        <system value="https://fhir.kbv.de/CodeSystem/KBV_CS_ERP_Medication_Type"/>
                        <code value="rezeptur"/>
                    </coding>
                </code>
                <form>
                    <text value="Lösung"/>
                </form>
                <amount>
                    <numerator>
                        <extension url="https://fhir.kbv.de/StructureDefinition/KBV_EX_ERP_Medication_PackagingSize">
                            <valueString value="100"/>
                        </extension>
                        <unit value="ml"/>
                    </numerator>
                    <denominator>
                        <value value="1"/>
                    </denominator>
                </amount>
                <ingredient>
                    <itemCodeableConcept>
                        <text value="Salicylsäure"/>
                    </itemCodeableConcept>
                    <strength>
                        <numerator>
                            <value value="5"/>
                            <unit value="g"/>
                        </numerator>
                        <denominator>
                            <value value="1"/>
                        </denominator>
                    </strength>
                </ingredient>
                <ingredient>
                    <itemCodeableConcept>
                        <text value="2-propanol 70 %"/>
                    </itemCodeableConcept>
                    <strength>
                        <extension url="https://fhir.kbv.de/StructureDefinition/KBV_EX_ERP_Medication_Ingredient_Amount">
                            <valueString value="Ad 100 g"/>
                        </extension>
                    </strength>
                </ingredient>
            </Medication>
        </resource>
    </entry>
    <entry>
        <fullUrl value="http://pvs.praxis.local/fhir/Patient/5d0b8122-b701-49c4-b94e-96bf04ca0832"/>
        <resource>
            <Patient>
                <id value="5d0b8122-b701-49c4-b94e-96bf04ca0832"/>
                <meta>
                    <profile value="https://fhir.kbv.de/StructureDefinition/KBV_PR_FOR_Patient|1.1.0"/>
                </meta>
                <identifier>
                    <type>
                        <coding>
                            <system value="http://fhir.de/CodeSystem/identifier-type-de-basis"/>
                            <code value="PKV"/>
                        </coding>
                    </type>
                    <system value="http://fhir.de/sid/pkv/kvid-10"/>
                    <value value="P123464233"/>
                </identifier>
                <name>
                    <use value="official"/>
                    <family value="Privati">
                        <extension url="http://hl7.org/fhir/StructureDefinition/humanname-own-name">
                            <valueString value="Privati"/>
                        </extension>
                    </family>
                    <given value="Paolo"/>
                </name>
                <birthDate value="1935-01-06"/>
                <address>
                    <type value="both"/>
                    <line value="Blumenweg 18">
                        <extension url="http://hl7.org/fhir/StructureDefinition/iso21090-ADXP-streetName">
                            <valueString value="Blumenweg"/>
                        </extension>
                        <extension url="http://hl7.org/fhir/StructureDefinition/iso21090-ADXP-houseNumber">
                            <valueString value="18"/>
                        </extension>
                    </line>
                    <city value="Esens"/>
                    <postalCode value="26427"/>
                    <country value="D"/>
                </address>
            </Patient>
        </resource>
    </entry>
    <entry>
        <fullUrl value="http://pvs.praxis.local/fhir/Practitioner/78846f05-8d51-41de-8dc5-788fd1d4a8e8"/>
        <resource>
            <Practitioner>
                <id value="78846f05-8d51-41de-8dc5-788fd1d4a8e8"/>
                <meta>
                    <profile value="https://fhir.kbv.de/StructureDefinition/KBV_PR_FOR_Practitioner|1.1.0"/>
                </meta>
                <identifier>
                    <type>
                        <coding>
                            <system value="http://terminology.hl7.org/CodeSystem/v2-0203"/>
                            <code value="LANR"/>
                        </coding>
                    </type>
                    <system value="https://fhir.kbv.de/NamingSystem/KBV_NS_Base_ANR"/>
                    <value value="123412821"/>
                </identifier>
                <name>
                    <use value="official"/>
                    <family value="Schmidt">
                        <extension url="http://hl7.org/fhir/StructureDefinition/humanname-own-name">
                            <valueString value="Schmidt"/>
                        </extension>
                    </family>
                    <given value="Hanna"/>
                </name>
                <qualification>
                    <code>
                        <coding>
                            <system value="https://fhir.kbv.de/CodeSystem/KBV_CS_FOR_Qualification_Type"/>
                            <code value="00"/>
                        </coding>
                    </code>
                </qualification>
                <qualification>
                    <code>
                        <coding>
                            <system value="https://fhir.kbv.de/CodeSystem/KBV_CS_FOR_Berufsbezeichnung"/>
                            <code value="Berufsbezeichnung"/>
                        </coding>
                        <text value="Fachärztin für Haut- und Geschlechtskrankheiten"/>
                    </code>
                </qualification>
            </Practitioner>
        </resource>
    </entry>
    <entry>
        <fullUrl value="http://pvs.praxis.local/fhir/Organization/ba53ce73-1310-45a8-b9e5-5f70b965062c"/>
        <resource>
            <Organization>
                <id value="ba53ce73-1310-45a8-b9e5-5f70b965062c"/>
                <meta>
                    <profile value="https://fhir.kbv.de/StructureDefinition/KBV_PR_FOR_Organization|1.1.0"/>
                </meta>
                <identifier>
                    <type>
                        <coding>
                            <system value="http://terminology.hl7.org/CodeSystem/v2-0203"/>
                            <code value="BSNR"/>
                        </coding>
                    </type>
                    <system value="https://fhir.kbv.de/NamingSystem/KBV_NS_Base_BSNR"/>
                    <value value="721111100"/>
                </identifier>
                <name value="MVZ"/>
                <telecom>
                    <system value="phone"/>
                    <value value="030369258147"/>
                </telecom>
                <address>
                    <type value="both"/>
                    <line value="Herbert-Lewin-Platz 2">
                        <extension url="http://hl7.org/fhir/StructureDefinition/iso21090-ADXP-streetName">
                            <valueString value="Herbert-Lewin-Platz"/>
                        </extension>
                        <extension url="http://hl7.org/fhir/StructureDefinition/iso21090-ADXP-houseNumber">
                            <valueString value="2"/>
                        </extension>
                    </line>
                    <city value="Berlin"/>
                    <postalCode value="10623"/>
                    <country value="D"/>
                </address>
            </Organization>
        </resource>
    </entry>
    <entry>
        <fullUrl value="http://pvs.praxis.local/fhir/Coverage/e4089df2-8de1-494e-b5ba-2029efb47082"/>
        <resource>
            <Coverage>
                <id value="e4089df2-8de1-494e-b5ba-2029efb47082"/>
                <meta>
                    <profile value="https://fhir.kbv.de/StructureDefinition/KBV_PR_FOR_Coverage|1.1.0"/>
                </meta>
                <extension url="http://fhir.de/StructureDefinition/gkv/besondere-personengruppe">
                    <valueCoding>
                        <system value="https://fhir.kbv.de/CodeSystem/KBV_CS_SFHIR_KBV_PERSONENGRUPPE"/>
                        <code value="00"/>
                    </valueCoding>
                </extension>
                <extension url="http://fhir.de/StructureDefinition/gkv/dmp-kennzeichen">
                    <valueCoding>
                        <system value="https://fhir.kbv.de/CodeSystem/KBV_CS_SFHIR_KBV_DMP"/>
                        <code value="00"/>
                    </valueCoding>
                </extension>
                <extension url="http://fhir.de/StructureDefinition/gkv/versichertenart">
                    <valueCoding>
                        <system value="https://fhir.kbv.de/CodeSystem/KBV_CS_SFHIR_KBV_VERSICHERTENSTATUS"/>
                        <code value="1"/>
                    </valueCoding>
                </extension>
                <status value="active"/>
                <type>
                    <coding>
                        <system value="http://fhir.de/CodeSystem/versicherungsart-de-basis"/>
                        <code value="PKV"/>
                    </coding>
                </type>
                <beneficiary>
                    <reference value="Patient/5d0b8122-b701-49c4-b94e-96bf04ca0832"/>
                </beneficiary>
                <payor>
                    <identifier>
                        <system value="http://fhir.de/sid/arge-ik/iknr"/>
                        <value value="168140346"/>
                    </identifier>
                    <display value="Allianz Private Krankenversicherung"/>
                </payor>
            </Coverage>
        </resource>
    </entry>
</Bundle>