<Bundle xmlns="http://hl7.org/fhir">
    <id value="baf89507-ba99-4201-b2a0-149b02b35053"/>
    <meta>
        <profile value="https://gematik.de/fhir/erp/StructureDefinition/GEM_ERP_PR_Bundle|1.3" />
        <tag>
            <display value="Beispiel Quittung für erfolgreich durchlaufenen E-Rezept-Workflow = dispensiertes E-Rezept" />
        </tag>
    </meta>
    <identifier>
        <system value="https://gematik.de/fhir/erp/NamingSystem/GEM_ERP_NS_PrescriptionId" />
        <value value="200.424.187.927.272.20" />
    </identifier>
    <type value="document" />
    <timestamp value="2024-11-03T11:40:00.000+00:00" />
    <link>
        <relation value="self" />
        <url value="https://erp-ref.zentral.erp.splitdns.ti-dienste.de/Task/200.424.187.927.272.20/$close/" />
    </link>
    <entry>
        <fullUrl value="urn:uuid:4cba5974-7383-48f4-9c66-81dc94dbd0a7"/>
        <resource>
            <Composition xmlns="http://hl7.org/fhir">
                <meta>
                    <profile value="https://gematik.de/fhir/erp/StructureDefinition/GEM_ERP_PR_Composition|1.3"/>
                </meta>
                <extension url="https://gematik.de/fhir/erp/StructureDefinition/GEM_ERP_EX_Beneficiary">
                    <valueIdentifier>
                        <system value="https://gematik.de/fhir/sid/telematik-id"/>
                        <value value="3-SMC-B-Testkarte-883110000116873"/>
                    </valueIdentifier>
                </extension>
                <status value="final"/>
                <type>
                    <coding>
                        <system value="https://gematik.de/fhir/erp/CodeSystem/GEM_ERP_CS_DocumentType"/>
                        <code value="3"/>
                        <display value="Receipt"/>
                    </coding>
                </type>
                <date value="2024-11-03T11:40:00.000+00:00" />
                <author>
                    <reference value="urn:uuid:87496b7c-e626-4578-b3d0-cc6ef2a417fb"/>
                </author>
                <title value="Quittung"/>
                <event>
                    <period>
                        <start value="2024-11-03T11:20:00.000+00:00" />
                        <end value="2024-11-03T11:40:00.000+00:00" />
                    </period>
                </event>
                <section>
                    <entry>
                        <reference value="urn:uuid:0b3c098a-5177-4d64-bca2-1f36e2f3d32f"/>
                    </entry>
                </section>
            </Composition>
        </resource>
    </entry>
    <entry>
        <fullUrl value="urn:uuid:87496b7c-e626-4578-b3d0-cc6ef2a417fb"/>
        <resource>
            <Device xmlns="http://hl7.org/fhir">
                <id value="87496b7c-e626-4578-b3d0-cc6ef2a417fb"/>
                <meta>
                    <profile value="https://gematik.de/fhir/erp/StructureDefinition/GEM_ERP_PR_Device|1.3"/>
                </meta>
                <status value="active"/>
                <serialNumber value="1.12.0"/>
                <deviceName>
                    <name value="E-Rezept Fachdienst"/>
                    <type value="user-friendly-name"/>
                </deviceName>
                <version>
                    <value value="1.12.0"/>
                </version>
                <contact>
                    <system value="email"/>
                    <value value="betrieb@gematik.de"/>
                </contact>
            </Device>
        </resource>
    </entry>
    <entry>
        <fullUrl value="urn:uuid:0b3c098a-5177-4d64-bca2-1f36e2f3d32f"/>
        <resource>
            <Binary xmlns="http://hl7.org/fhir">
                <id value="0b3c098a-5177-4d64-bca2-1f36e2f3d32f"/>
                <meta>
                    <versionId value="1"/>
                    <profile value="https://gematik.de/fhir/erp/StructureDefinition/GEM_ERP_PR_Digest|1.3"/>
                </meta>
                <contentType value="application/octet-stream"/>
                <data value="EH+F6h+DImWpnFB7qzFZw8yjTNIvYhFAinYfmsmXq7Q="/>
            </Binary>
        </resource>
    </entry>
    <signature>
        <type>
            <system value="urn:iso-astm:E1762-95:2013"/>
            <code value="1.2.840.10065.1.12.1.1"/>
        </type>
        <when value="2024-11-03T11:40:00.000+00:00" />
        <who>
            <reference value="urn:uuid:87496b7c-e626-4578-b3d0-cc6ef2a417fb"/>
        </who>
        <sigFormat value="application/pkcs7-mime"/>
        <data value=""/>
    </signature>
</Bundle>