<?xml version="1.0" encoding="UTF-8"?>
<Bundle xmlns="http://hl7.org/fhir">
  <id value="0884baec-9d79-47b7-91ba-1fc1abaebae8"/>
  <meta>
    <profile value="https://fhir.kbv.de/StructureDefinition/KBV_PR_ERP_Bundle|1.1.0"/>
  </meta>
  <identifier>
    <system value="https://gematik.de/fhir/erp/NamingSystem/GEM_ERP_NS_PrescriptionId"/>
    <value value="160.065.873.704.859.46"/>
  </identifier>
  <type value="document"/>
  <timestamp value="2025-02-03T08:30:00Z"/>
  <entry>
    <fullUrl value="http://pvs.praxis.local/fhir/Composition/15e1e8fe-e009-4d86-a6af-8d9e12f785c3"/>
    <resource>
      <Composition>
        <id value="15e1e8fe-e009-4d86-a6af-8d9e12f785c3"/>
        <meta>
          <profile value="https://fhir.kbv.de/StructureDefinition/KBV_PR_ERP_Composition|1.1.0"/>
        </meta>
        <extension url="https://fhir.kbv.de/StructureDefinition/KBV_EX_FOR_Legal_basis">
          <valueCoding>
            <system value="https://fhir.kbv.de/CodeSystem/KBV_CS_SFHIR_KBV_STATUSKENNZEICHEN"/>
            <code value="00"/>
          </valueCoding>
        </extension>
        <status value="final"/>
        <type>
          <coding>
            <system value="https://fhir.kbv.de/CodeSystem/KBV_CS_SFHIR_KBV_FORMULAR_ART"/>
            <code value="e16A"/>
          </coding>
        </type>
        <subject>
          <reference value="Patient/80141047-1ace-46b4-a840-3573961ab23c"/>
        </subject>
        <date value="2025-02-03T08:00:00Z"/>
        <author>
          <reference value="Practitioner/9da12651-d042-444b-8ac1-ce5101ce65e0"/>
          <type value="Practitioner"/>
        </author>
        <author>
          <type value="Device"/>
          <identifier>
            <system value="https://fhir.kbv.de/NamingSystem/KBV_NS_FOR_Pruefnummer"/>
            <value value="Y/400/2107/36/999"/>
          </identifier>
        </author>
        <title value="elektronische Arzneimittelverordnung"/>
        <custodian>
          <reference value="Organization/88ee1a92-1284-413f-a2c6-ad8ec7658c2e"/>
        </custodian>
        <section>
          <code>
            <coding>
              <system value="https://fhir.kbv.de/CodeSystem/KBV_CS_ERP_Section_Type"/>
              <code value="Prescription"/>
            </coding>
          </code>
          <entry>
            <reference value="MedicationRequest/13dfb1c6-1094-43f4-bba5-e5b6068096f3"/>
          </entry>
        </section>
        <section>
          <code>
            <coding>
              <system value="https://fhir.kbv.de/CodeSystem/KBV_CS_ERP_Section_Type"/>
              <code value="Coverage"/>
            </coding>
          </code>
          <entry>
            <reference value="Coverage/07a8c8eb-4396-4b2a-b933-32f1e403b2b8"/>
          </entry>
        </section>
      </Composition>
    </resource>
  </entry>
  <entry>
    <fullUrl value="http://pvs.praxis.local/fhir/MedicationRequest/13dfb1c6-1094-43f4-bba5-e5b6068096f3"/>
    <resource>
      <MedicationRequest>
        <id value="13dfb1c6-1094-43f4-bba5-e5b6068096f3"/>
        <meta>
          <profile value="https://fhir.kbv.de/StructureDefinition/KBV_PR_ERP_Prescription|1.1.0"/>
        </meta>
        <extension url="https://fhir.kbv.de/StructureDefinition/KBV_EX_FOR_StatusCoPayment">
          <valueCoding>
            <system value="https://fhir.kbv.de/CodeSystem/KBV_CS_FOR_StatusCoPayment" />
            <code value="0" />
          </valueCoding>
        </extension>
        <extension url="https://fhir.kbv.de/StructureDefinition/KBV_EX_ERP_EmergencyServicesFee">
          <valueBoolean value="false"/>
        </extension>
        <extension url="https://fhir.kbv.de/StructureDefinition/KBV_EX_ERP_BVG">
          <valueBoolean value="false"/>
        </extension>
        <extension url="https://fhir.kbv.de/StructureDefinition/KBV_EX_ERP_Multiple_Prescription">
          <extension url="Kennzeichen">
            <valueBoolean value="false"/>
          </extension>
        </extension>
        <status value="active"/>
        <intent value="order"/>
        <medicationReference>
          <reference value="Medication/278f92ad-c9f7-4cf2-ba7b-f35bd1db880a"/>
        </medicationReference>
        <subject>
          <reference value="Patient/80141047-1ace-46b4-a840-3573961ab23c"/>
        </subject>
        <authoredOn value="2025-02-03"/>
        <requester>
          <reference value="Practitioner/9da12651-d042-444b-8ac1-ce5101ce65e0"/>
        </requester>
        <insurance>
          <reference value="Coverage/07a8c8eb-4396-4b2a-b933-32f1e403b2b8"/>
        </insurance>
        <dosageInstruction>
          <extension url="https://fhir.kbv.de/StructureDefinition/KBV_EX_ERP_DosageFlag">
            <valueBoolean value="true" />
          </extension>
          <text value="1–3mal/Tag auf die erkrankten Hautstellen auftragen" />
        </dosageInstruction>
        <dispenseRequest>
          <quantity>
            <value value="1"/>
            <system value="http://unitsofmeasure.org"/>
            <code value="{Package}"/>
          </quantity>
        </dispenseRequest>
        <substitution>
          <allowedBoolean value="false"/>
        </substitution>
      </MedicationRequest>
    </resource>
  </entry>
  <entry>
    <fullUrl value="http://pvs.praxis.local/fhir/Medication/278f92ad-c9f7-4cf2-ba7b-f35bd1db880a"/>
    <resource>
      <Medication>
        <id value="278f92ad-c9f7-4cf2-ba7b-f35bd1db880a"/>
        <meta>
          <profile value="https://fhir.kbv.de/StructureDefinition/KBV_PR_ERP_Medication_FreeText|1.1.0"/>
        </meta>
        <extension url="https://fhir.kbv.de/StructureDefinition/KBV_EX_ERP_Medication_Category">
          <valueCoding>
            <system value="https://fhir.kbv.de/CodeSystem/KBV_CS_ERP_Medication_Category"/>
            <code value="00"/>
          </valueCoding>
        </extension>
        <extension url="https://fhir.kbv.de/StructureDefinition/KBV_EX_ERP_Medication_Vaccine">
          <valueBoolean value="false"/>
        </extension>
        <code>
          <coding>
            <system value="https://fhir.kbv.de/CodeSystem/KBV_CS_ERP_Medication_Type"/>
            <code value="freitext"/>
          </coding>
          <text value="2-Propanolhaltiger Salicylsäure-Hautspiritus 5 % (NRF 11.55.) 100 ml"/>
        </code>
        <form>
          <text value="Lösung"/>
        </form>
      </Medication>
    </resource>
  </entry>
  <entry>
    <fullUrl value="http://pvs.praxis.local/fhir/Patient/80141047-1ace-46b4-a840-3573961ab23c"/>
    <resource>
      <Patient>
        <id value="80141047-1ace-46b4-a840-3573961ab23c"/>
        <meta>
          <profile value="https://fhir.kbv.de/StructureDefinition/KBV_PR_FOR_Patient|1.1.0"/>
        </meta>
        <identifier>
          <type>
            <coding>
              <system value="http://fhir.de/CodeSystem/identifier-type-de-basis"/>
              <code value="GKV"/>
            </coding>
          </type>
          <system value="http://fhir.de/sid/gkv/kvid-10"/>
          <value value="K220645122"/>
        </identifier>
        <name>
          <use value="official"/>
          <family value="Schuhmann">
            <extension url="http://hl7.org/fhir/StructureDefinition/humanname-own-name">
              <valueString value="Schuhmann"/>
            </extension>
          </family>
          <given value="Sahra"/>
        </name>
        <birthDate value="1970-12-24"/>
        <address>
          <type value="both"/>
          <line value="Berliner Straße 1">
            <extension url="http://hl7.org/fhir/StructureDefinition/iso21090-ADXP-streetName">
              <valueString value="Berliner Straße"/>
            </extension>
            <extension url="http://hl7.org/fhir/StructureDefinition/iso21090-ADXP-houseNumber">
              <valueString value="1"/>
            </extension>
          </line>
          <city value="Husum"/>
          <postalCode value="25813"/>
          <country value="D"/>
        </address>
      </Patient>
    </resource>
  </entry>
  <entry>
    <fullUrl value="http://pvs.praxis.local/fhir/Practitioner/9da12651-d042-444b-8ac1-ce5101ce65e0"/>
    <resource>
      <Practitioner>
        <id value="9da12651-d042-444b-8ac1-ce5101ce65e0"/>
        <meta>
          <profile value="https://fhir.kbv.de/StructureDefinition/KBV_PR_FOR_Practitioner|1.1.0"/>
        </meta>
        <identifier>
          <type>
            <coding>
              <system value="http://terminology.hl7.org/CodeSystem/v2-0203"/>
              <code value="LANR"/>
            </coding>
          </type>
          <system value="https://fhir.kbv.de/NamingSystem/KBV_NS_Base_ANR"/>
          <value value="123412821"/>
        </identifier>
        <name>
          <use value="official"/>
          <family value="Schmidt">
            <extension url="http://hl7.org/fhir/StructureDefinition/humanname-own-name">
              <valueString value="Schmidt"/>
            </extension>
          </family>
          <given value="Hanna"/>
        </name>
        <qualification>
          <code>
            <coding>
              <system value="https://fhir.kbv.de/CodeSystem/KBV_CS_FOR_Qualification_Type"/>
              <code value="00"/>
            </coding>
          </code>
        </qualification>
        <qualification>
          <code>
            <coding>
              <system value="https://fhir.kbv.de/CodeSystem/KBV_CS_FOR_Berufsbezeichnung"/>
              <code value="Berufsbezeichnung"/>
            </coding>
            <text value="Dermatologin"/>
          </code>
        </qualification>
      </Practitioner>
    </resource>
  </entry>
  <entry>
    <fullUrl value="http://pvs.praxis.local/fhir/Organization/88ee1a92-1284-413f-a2c6-ad8ec7658c2e"/>
    <resource>
      <Organization>
        <id value="88ee1a92-1284-413f-a2c6-ad8ec7658c2e"/>
        <meta>
          <profile value="https://fhir.kbv.de/StructureDefinition/KBV_PR_FOR_Organization|1.1.0"/>
        </meta>
        <identifier>
          <type>
            <coding>
              <system value="http://terminology.hl7.org/CodeSystem/v2-0203"/>
              <code value="BSNR"/>
            </coding>
          </type>
          <system value="https://fhir.kbv.de/NamingSystem/KBV_NS_Base_BSNR"/>
          <value value="721111100"/>
        </identifier>
        <name value="MVZ"/>
        <telecom>
          <system value="phone"/>
          <value value="030369258147"/>
        </telecom>
        <address>
          <type value="both"/>
          <line value="Herbert-Lewin-Platz 2">
            <extension url="http://hl7.org/fhir/StructureDefinition/iso21090-ADXP-streetName">
              <valueString value="Herbert-Lewin-Platz"/>
            </extension>
            <extension url="http://hl7.org/fhir/StructureDefinition/iso21090-ADXP-houseNumber">
              <valueString value="2"/>
            </extension>
          </line>
          <city value="Berlin"/>
          <postalCode value="10623"/>
          <country value="D"/>
        </address>
      </Organization>
    </resource>
  </entry>
  <entry>
    <fullUrl value="http://pvs.praxis.local/fhir/Coverage/07a8c8eb-4396-4b2a-b933-32f1e403b2b8"/>
    <resource>
      <Coverage>
        <id value="07a8c8eb-4396-4b2a-b933-32f1e403b2b8"/>
        <meta>
          <profile value="https://fhir.kbv.de/StructureDefinition/KBV_PR_FOR_Coverage|1.1.0"/>
        </meta>
        <extension url="http://fhir.de/StructureDefinition/gkv/besondere-personengruppe">
          <valueCoding>
            <system value="https://fhir.kbv.de/CodeSystem/KBV_CS_SFHIR_KBV_PERSONENGRUPPE"/>
            <code value="06"/>
          </valueCoding>
        </extension>
        <extension url="http://fhir.de/StructureDefinition/gkv/dmp-kennzeichen">
          <valueCoding>
            <system value="https://fhir.kbv.de/CodeSystem/KBV_CS_SFHIR_KBV_DMP"/>
            <code value="00"/>
          </valueCoding>
        </extension>
        <extension url="http://fhir.de/StructureDefinition/gkv/versichertenart">
          <valueCoding>
            <system value="https://fhir.kbv.de/CodeSystem/KBV_CS_SFHIR_KBV_VERSICHERTENSTATUS"/>
            <code value="1"/>
          </valueCoding>
        </extension>
        <status value="active"/>
        <type>
          <coding>
            <system value="http://fhir.de/CodeSystem/versicherungsart-de-basis"/>
            <code value="GKV"/>
          </coding>
        </type>
        <beneficiary>
          <reference value="Patient/80141047-1ace-46b4-a840-3573961ab23c"/>
        </beneficiary>
        <payor>
          <identifier>
            <system value="http://fhir.de/sid/arge-ik/iknr"/>
            <value value="108018347"/>
          </identifier>
          <display value="AOK Ludwigsburg-Bietigheim"/>
        </payor>
      </Coverage>
    </resource>
  </entry>
</Bundle>