<?xml version="1.0" encoding="UTF-8"?>
<Bundle xmlns="http://hl7.org/fhir">
    <id value="747a02fd-6100-4032-9279-10c8544791b9"/>
    <meta>
        <profile value="https://fhir.kbv.de/StructureDefinition/KBV_PR_ERP_Bundle|1.2"/> <!-- ID 2 und 3-->
    </meta>
    <identifier>
        <system value="https://gematik.de/fhir/erp/NamingSystem/GEM_ERP_NS_PrescriptionId"/>
        <value value="910.156.745.817.223.68"/> <!-- ID 5 -->
    </identifier>
    <type value="document"/>
    <timestamp value="2025-02-02T08:30:00Z"/>
    <entry>
        <fullUrl value="urn:uuid:9ff27be3-206c-4b06-a592-2e0d918811db"/>
        <resource>
            <Composition xmlns="http://hl7.org/fhir">
                <id value="9ff27be3-206c-4b06-a592-2e0d918811db"/>
                <meta>
                    <profile value="https://fhir.kbv.de/StructureDefinition/KBV_PR_ERP_Composition|1.2"/>
                </meta>
                <extension url="https://fhir.kbv.de/StructureDefinition/KBV_EX_FOR_Legal_basis">
                    <valueCoding>
                        <system value="https://fhir.kbv.de/CodeSystem/KBV_CS_SFHIR_KBV_STATUSKENNZEICHEN"/>
                        <code value="00"/> <!-- ID 17 default 00 -->
                    </valueCoding>
                </extension>
                <status value="final"/>
                <type>
                    <coding>
                        <system value="https://fhir.kbv.de/CodeSystem/KBV_CS_SFHIR_KBV_FORMULAR_ART"/>
                        <code value="e16A"/>
                    </coding>
                </type>
                <subject>
                    <reference value="urn:uuid:9c4dfaaf-2020-4571-a928-7740a223159d"/>
                </subject>
                <date value="2025-02-02T08:30:00Z"/>
                <author>
                    <reference value="urn:uuid:f94a85bf-aab8-4101-a599-507d9c261cc0"/>
                    <type value="Practitioner"/>
                </author>
                <author>
                    <type value="Device"/>
                    <identifier>
                        <system value="https://fhir.kbv.de/NamingSystem/KBV_NS_FOR_Pruefnummer"/>
                        <value value="000000"/> <!-- ID 4 default "000000" -->
                    </identifier>
                </author>
                <title value="elektronische Arzneimittelverordnung"/>
                <custodian>
                    <reference value="urn:uuid:7523efac-45a2-4001-a782-9cddca97fa8d"/>
                </custodian>
                <section>
                    <code>
                        <coding>
                            <system value="https://fhir.kbv.de/CodeSystem/KBV_CS_ERP_Section_Type"/>
                            <code value="Prescription"/>
                        </coding>
                    </code>
                    <entry>
                        <reference value="urn:uuid:cc85b9f8-a7d5-4093-8845-89cf96591290"/>
                    </entry>
                </section>
                <section>
                    <code>
                        <coding>
                            <system value="https://fhir.kbv.de/CodeSystem/KBV_CS_ERP_Section_Type"/>
                            <code value="Coverage"/>
                        </coding>
                    </code>
                    <entry>
                        <reference value="urn:uuid:3eda37cb-e3f0-412b-a3a4-e95fc15f1608"/>
                    </entry>
                </section>
            </Composition>
        </resource>
    </entry>
    <entry>
        <fullUrl value="urn:uuid:cc85b9f8-a7d5-4093-8845-89cf96591290"/>
        <resource>
            <MedicationRequest xmlns="http://hl7.org/fhir">
                <id value="cc85b9f8-a7d5-4093-8845-89cf96591290"/>
                <meta>
                    <profile value="https://fhir.kbv.de/StructureDefinition/KBV_PR_ERP_Prescription|1.2"/>
                </meta>
                <extension url="https://fhir.kbv.de/StructureDefinition/KBV_EX_ERP_EmergencyServicesFee">
                    <valueBoolean value="false"/> <!-- ID 82 default false -->
                </extension>
                <extension url="https://fhir.kbv.de/StructureDefinition/KBV_EX_FOR_SER">
                    <valueBoolean value="false"/> <!-- ID 82 default false -->
                </extension>
                <extension url="https://fhir.kbv.de/StructureDefinition/KBV_EX_ERP_Multiple_Prescription">
                    <extension url="Kennzeichen">
                        <valueBoolean value="false"/> <!-- ID 87 default false -->
                    </extension>
                </extension>
                <extension url="https://fhir.kbv.de/StructureDefinition/KBV_EX_FOR_StatusCoPayment">
                    <valueCoding>
                        <system value="https://fhir.kbv.de/CodeSystem/KBV_CS_FOR_StatusCoPayment"/>
                        <code value="1"/> <!-- ID 77 default 1-->
                    </valueCoding>
                </extension>
                <status value="active"/>
                <intent value="order"/>
                <medicationReference>
                    <reference value="urn:uuid:f3b451b6-ef92-4888-82ec-762246bb52f0"/>
                </medicationReference>
                <subject>
                    <reference value="urn:uuid:9c4dfaaf-2020-4571-a928-7740a223159d"/>
                </subject>
                <authoredOn value="2025-02-02"/> <!-- ID 80 -->
                <requester>
                    <reference value="urn:uuid:f94a85bf-aab8-4101-a599-507d9c261cc0"/>
                </requester>
                <insurance>
                    <reference value="urn:uuid:3eda37cb-e3f0-412b-a3a4-e95fc15f1608"/>
                </insurance>
                <dispenseRequest>
                    <quantity>
                        <value value="1"/> <!-- ID 113 default 1 -->
                        <unit value="Packung"/>
                    </quantity>
                </dispenseRequest>
                <substitution>
                    <allowedBoolean value="false"/> <!-- ID 102 default false -->
                </substitution>
            </MedicationRequest>
        </resource>
    </entry>
    <entry>
        <fullUrl value="urn:uuid:f3b451b6-ef92-4888-82ec-762246bb52f0"/>
        <resource>
            <Medication xmlns="http://hl7.org/fhir">
                <id value="f3b451b6-ef92-4888-82ec-762246bb52f0"/>
                <meta>
                    <profile value="https://fhir.kbv.de/StructureDefinition/KBV_PR_ERP_Medication_PZN|1.2"/>
                </meta>
                <extension url="https://fhir.kbv.de/StructureDefinition/KBV_EX_Base_Medication_Type">
                    <valueCodeableConcept>
                        <coding>
                            <system value="http://snomed.info/sct"/>
                            <version value="http://snomed.info/sct/11000274103/version/20240515"/>
                            <code value="763158003"/>
                            <display value="Medicinal product (product)"/>
                        </coding>
                    </valueCodeableConcept>
                </extension>
                <extension url="https://fhir.kbv.de/StructureDefinition/KBV_EX_ERP_Medication_Category">
                    <valueCoding>
                        <system value="https://fhir.kbv.de/CodeSystem/KBV_CS_ERP_Medication_Category"/>
                        <code value="00"/> <!-- ID 81 default 00 -->
                    </valueCoding>
                </extension>
                <extension url="https://fhir.kbv.de/StructureDefinition/KBV_EX_ERP_Medication_Vaccine">
                    <valueBoolean value="false"/> <!-- ID 84 default false -->
                </extension>
                <code>
                    <coding>
                        <system value="http://fhir.de/CodeSystem/ifa/pzn"/>
                        <code value="17716872"/>
                    </coding>
                    <text value="PDL Blutdruck"/>
                </code>
                <form>
                    <coding>
                        <system value="https://fhir.kbv.de/CodeSystem/KBV_CS_SFHIR_KBV_DARREICHUNGSFORM"/>
                        <code value="---"/> <!-- ID 103 default -->
                    </coding>
                </form>
                <amount>
                    <numerator>
                        <extension url="https://fhir.kbv.de/StructureDefinition/KBV_EX_ERP_Medication_PackagingSize">
                            <valueString value="1" />
                        </extension>
                        <unit value="St"/>
                    </numerator>
                    <denominator>
                        <value value="1"/>
                    </denominator>
                </amount>
                <ingredient>
                    <itemCodeableConcept>
                        <text value="PDL Blutdruck" />
                    </itemCodeableConcept>
                    <strength>
                        <numerator>
                            <value value="1" />
                            <unit value="St" />
                        </numerator>
                        <denominator>
                            <value value="1" />
                        </denominator>
                    </strength>
                </ingredient>
            </Medication>
        </resource>
    </entry>
    <entry>
        <fullUrl value="urn:uuid:9c4dfaaf-2020-4571-a928-7740a223159d"/>
        <resource>
            <Patient xmlns="http://hl7.org/fhir">
                <id value="9c4dfaaf-2020-4571-a928-7740a223159d"/>
                <meta>
                    <profile value="https://fhir.kbv.de/StructureDefinition/KBV_PR_FOR_Patient|1.2"/>
                </meta>
                <identifier>
                    <type>
                        <coding>
                            <system value="http://fhir.de/CodeSystem/identifier-type-de-basis"/>
                            <code value="KVZ10"/>
                        </coding>
                    </type>
                    <system value="http://fhir.de/sid/gkv/kvid-10"/>
                    <value value="T555558879"/> <!-- ID 19a (GKV) -->
                </identifier>
                <name>
                    <use value="official"/>
                    <family value="TK-Mustermann">
                        <extension url="http://hl7.org/fhir/StructureDefinition/humanname-own-name">
                            <valueString value="TK-Mustermann"/> <!-- ID 21 -->
                        </extension>
                    </family>
                    <given value="Max"/> <!-- ID 20 -->
                </name>
                <birthDate value="1995-01-01"/> <!-- ID 25 -->
                <address>
                    <type value="both"/>
                    <line value="Bramfelder Str. 140">
                        <extension url="http://hl7.org/fhir/StructureDefinition/iso21090-ADXP-houseNumber">
                            <valueString value="140"/> <!-- ID 32 -->
                        </extension>
                        <extension url="http://hl7.org/fhir/StructureDefinition/iso21090-ADXP-streetName">
                            <valueString value="Bramfelder Str."/> <!-- ID 31 -->
                        </extension>
                    </line>
                    <city value="Hamburg"/> <!-- ID 30 -->
                    <postalCode value="22305"/> <!-- ID 29 -->
                    <country value="D"/> <!-- ID 28 -->
                </address>
            </Patient>
        </resource>
    </entry>
    <entry>
        <fullUrl value="urn:uuid:f94a85bf-aab8-4101-a599-507d9c261cc0"/>
        <resource>
            <Practitioner xmlns="http://hl7.org/fhir">
                <id value="f94a85bf-aab8-4101-a599-507d9c261cc0"/>
                <meta>
                    <profile value="https://fhir.kbv.de/StructureDefinition/KBV_PR_FOR_Practitioner|1.2"/>
                </meta>
                <identifier>
                    <type>
                        <coding>
                            <system value="http://terminology.hl7.org/CodeSystem/v2-0203"/>
                            <code value="LANR"/>
                        </coding>
                    </type>
                    <system value="https://fhir.kbv.de/NamingSystem/KBV_NS_Base_ANR"/>
                    <value value="000000000"/> <!-- ID 42a default 000000000 -->
                </identifier>
                <name>
                    <use value="official"/>
                    <family value="Apo">
                        <extension url="http://hl7.org/fhir/StructureDefinition/humanname-own-name">
                            <valueString value="Apo"/> <!-- ID 45 default Apo -->
                        </extension>
                    </family>
                    <given value="Apo"/> <!-- ID 44 default Apo -->
                </name>
                <qualification>
                    <code>
                        <coding>
                            <system value="https://fhir.kbv.de/CodeSystem/KBV_CS_FOR_Qualification_Type"/>
                            <code value="00"/> <!-- ID 41 default 00 -->
                        </coding>
                    </code>
                </qualification>
                <qualification>
                    <code>
                        <coding>
                            <system value="https://fhir.kbv.de/CodeSystem/KBV_CS_FOR_Berufsbezeichnung"/>
                            <code value="Berufsbezeichnung"/>
                        </coding>
                        <text value="Apo"/> <!-- ID 58 default Apo -->
                    </code>
                </qualification>
            </Practitioner>
        </resource>
    </entry>
    <entry>
        <fullUrl value="urn:uuid:7523efac-45a2-4001-a782-9cddca97fa8d"/>
        <resource>
            <Organization xmlns="http://hl7.org/fhir">
                <id value="7523efac-45a2-4001-a782-9cddca97fa8d"/>
                <meta>
                    <profile value="https://fhir.kbv.de/StructureDefinition/KBV_PR_FOR_Organization|1.2"/>
                </meta>
                <identifier>
                    <type>
                        <coding>
                            <system value="http://terminology.hl7.org/CodeSystem/v2-0203"/>
                            <code value="BSNR"/>
                        </coding>
                    </type>
                    <system value="https://fhir.kbv.de/NamingSystem/KBV_NS_Base_BSNR"/>
                    <value value="000000000"/> <!-- ID D 61a default 000000000 -->
                </identifier>
                <telecom>
                    <system value="phone"/>
                    <value value="Apo"/> <!-- ID 69 default Apo -->
                </telecom>
                <address>
                    <type value="both"/>
                    <line value="Apo"/>
                    <city value="Apo"/> <!-- ID 65 default Apo -->
                    <country value="D"/>
                </address>
            </Organization>
        </resource>
    </entry>
    <entry>
        <fullUrl value="urn:uuid:3eda37cb-e3f0-412b-a3a4-e95fc15f1608"/>
        <resource>
            <Coverage xmlns="http://hl7.org/fhir">
                <id value="3eda37cb-e3f0-412b-a3a4-e95fc15f1608"/>
                <meta>
                    <profile value="https://fhir.kbv.de/StructureDefinition/KBV_PR_FOR_Coverage|1.2"/>
                </meta>
                <extension url="http://fhir.de/StructureDefinition/gkv/besondere-personengruppe">
                    <valueCoding>
                        <system value="https://fhir.kbv.de/CodeSystem/KBV_CS_SFHIR_KBV_PERSONENGRUPPE"/>
                        <code value="00"/> <!-- ID 15 default 00 -->
                    </valueCoding>
                </extension>
                <extension url="http://fhir.de/StructureDefinition/gkv/dmp-kennzeichen">
                    <valueCoding>
                        <system value="https://fhir.kbv.de/CodeSystem/KBV_CS_SFHIR_KBV_DMP"/>
                        <code value="00"/> <!-- ID 16 default 00 -->
                    </valueCoding>
                </extension>
                <extension url="http://fhir.de/StructureDefinition/gkv/versichertenart">
                    <valueCoding>
                        <system value="https://fhir.kbv.de/CodeSystem/KBV_CS_SFHIR_KBV_VERSICHERTENSTATUS"/>
                        <code value="1"/> <!-- ID 14 default 1 -->
                    </valueCoding>
                </extension>
                <status value="active"/>
                <type>
                    <coding>
                        <system value="http://fhir.de/CodeSystem/versicherungsart-de-basis"/>
                        <code value="GKV"/> <!-- ID 7 -->
                    </coding>
                </type>
                <beneficiary>
                    <reference value="urn:uuid:9c4dfaaf-2020-4571-a928-7740a223159d"/>
                </beneficiary>
                <payor>
                    <identifier>
                        <system value="http://fhir.de/sid/arge-ik/iknr"/>
                        <value value="101575519"/> <!-- ID 9 -->
                    </identifier>
                    <display value="Techniker Krankenkasse"/> <!-- ID 11 -->
                </payor>
            </Coverage>
        </resource>
    </entry>
</Bundle>