<?xml version="1.0" encoding="UTF-8"?>
<Bundle xmlns="http://hl7.org/fhir">
    <id value="edb73cc7-0121-432d-aeab-0184e4ef91d8"/>
    <meta>
        <profile value="http://fhir.abda.de/eRezeptAbgabedaten/StructureDefinition/DAV-PR-ERP-AbgabedatenBundle|1.4"/>
        <!--tag>
            <display value="Beispiel für Abgabedaten für eine (pDL) PKV-Rx-NNF-meldung (edb73cc7-0121-432d-aeab-0184e4ef91d8)"/>
        </tag>
        <tag>
            <display value="ACHTUNG! Der fachlich korrekte Inhalt der Beispielinstanz kann nicht gewährleistet werden. Wir sind jederzeit dankbar für Hinweise auf Fehler oder für Verbesserungsvorschläge."/>
        </tag-->
    </meta>
    <identifier>
        <system value="https://gematik.de/fhir/erp/NamingSystem/GEM_ERP_NS_PrescriptionId"/>
        <value value="990.019.776.362.941.16"/>
    </identifier>
    <type value="document"/>
    <timestamp value="2025-11-01T09:30:00Z"/>
    <entry>
        <fullUrl value="urn:uuid:a6853cc0-e026-45c8-9215-8b24bd951b48"/>
        <resource>
             <Composition xmlns="http://hl7.org/fhir">
                <id value="a6853cc0-e026-45c8-9215-8b24bd951b48"/>
                <meta>
                    <profile value="http://fhir.abda.de/eRezeptAbgabedaten/StructureDefinition/DAV-PR-ERP-AbgabedatenComposition|1.4"/>
                </meta>
                <status value="final"/>
                <type>
                    <coding>
                        <system value="http://fhir.abda.de/eRezeptAbgabedaten/CodeSystem/DAV-CS-ERP-CompositionTypes"/>
                        <code value="ERezeptAbgabedaten"/>
                    </coding>
                </type>
                <date value="2025-11-01T09:30:00Z"/>
                <author>
                    <reference value="urn:uuid:958c1be9-0aa8-4d73-9006-e6cef9c6235f"/>
                </author>
                <title value="ERezeptAbgabedaten"/>
                <section>
                    <title value="Abgabeinformationen"/>
                    <entry>
                        <reference value="urn:uuid:48b59ffd-814a-4cb7-8431-a03c39202fe4"/>
                    </entry>
                </section>
                <section>
                    <title value="Apotheke"/>
                    <entry>
                        <reference value="urn:uuid:958c1be9-0aa8-4d73-9006-e6cef9c6235f"/>
                    </entry>
                </section>
            </Composition>
        </resource>
    </entry>
    <entry>
        <fullUrl value="urn:uuid:958c1be9-0aa8-4d73-9006-e6cef9c6235f"/>
        <resource>
             <Organization xmlns="http://hl7.org/fhir">
                <id value="958c1be9-0aa8-4d73-9006-e6cef9c6235f"/>
                <meta>
                    <profile value="http://fhir.abda.de/eRezeptAbgabedaten/StructureDefinition/DAV-PR-ERP-Apotheke|1.4"/>
                </meta>
                <identifier>
                    <system value="http://fhir.de/sid/arge-ik/iknr"/>
                    <value value="308412345"/>
                </identifier>
                <name value="Adler-Apotheke"/>
                <address>
                    <type value="physical"/>
                    <line value="Taunusstraße 89">
                        <extension url="http://hl7.org/fhir/StructureDefinition/iso21090-ADXP-streetName">
                            <valueString value="Taunusstraße"/>
                        </extension>
                        <extension url="http://hl7.org/fhir/StructureDefinition/iso21090-ADXP-houseNumber">
                            <valueString value="89"/>
                        </extension>
                    </line>
                    <city value="Langen"/>
                    <postalCode value="63225"/>
                    <country value="D"/>
                </address>
            </Organization>
        </resource>
    </entry>
    <entry>
        <fullUrl value="urn:uuid:48b59ffd-814a-4cb7-8431-a03c39202fe4"/>
        <resource>
             <MedicationDispense xmlns="http://hl7.org/fhir">
                <id value="48b59ffd-814a-4cb7-8431-a03c39202fe4"/>
                <meta>
                    <profile value="http://fhir.abda.de/eRezeptAbgabedaten/StructureDefinition/DAV-PR-ERP-Abgabeinformationen|1.4"/>
                </meta>
                <extension url="http://fhir.abda.de/eRezeptAbgabedaten/StructureDefinition/DAV-EX-ERP-Abrechnungszeilen">
                    <valueReference>
                        <reference value="urn:uuid:86e35aba-abdf-43f9-9ae2-4d081f8d5632"/>
                    </valueReference>
                </extension>
                <status value="completed"/>
                <medicationCodeableConcept>
                    <coding>
                        <system value="http://terminology.hl7.org/CodeSystem/data-absent-reason"/>
                        <code value="not-applicable"/>
                    </coding>
                </medicationCodeableConcept>
                <performer>
                    <actor>
                        <reference value="urn:uuid:958c1be9-0aa8-4d73-9006-e6cef9c6235f"/>
                    </actor>
                </performer>
                <authorizingPrescription>
                    <identifier>
                        <system value="https://gematik.de/fhir/erp/NamingSystem/GEM_ERP_NS_PrescriptionId"/>
                        <value value="990.019.776.362.941.16"/>
                    </identifier>
                </authorizingPrescription>
                <type>
                    <coding>
                        <system value="http://fhir.abda.de/eRezeptAbgabedaten/CodeSystem/DAV-CS-ERP-MedicationDispenseTyp"/>
                        <code value="Abgabeinformationen"/>
                    </coding>
                </type>
                <whenHandedOver value="2025-10-31"/>
            </MedicationDispense>
        </resource>
    </entry>
    <entry>
        <fullUrl value="urn:uuid:86e35aba-abdf-43f9-9ae2-4d081f8d5632"/>
        <resource>
             <Invoice xmlns="http://hl7.org/fhir">
                <id value="86e35aba-abdf-43f9-9ae2-4d081f8d5632"/>
                <meta>
                    <profile value="http://fhir.abda.de/eRezeptAbgabedaten/StructureDefinition/DAV-PR-ERP-Abrechnungszeilen|1.4"/>
                </meta>
                <status value="issued"/>
                <type>
                    <coding>
                        <system value="http://fhir.abda.de/eRezeptAbgabedaten/CodeSystem/DAV-CS-ERP-InvoiceTyp"/>
                        <code value="Abrechnungszeilen"/>
                    </coding>
                </type>
                <lineItem>
                    <sequence value="1"/>
                    <chargeItemCodeableConcept>
                        <coding>
                            <system value="http://TA1.abda.de"/>
                            <code value="02567768"/>
                        </coding>
                    </chargeItemCodeableConcept>
                    <priceComponent>
                        <extension url="http://fhir.abda.de/eRezeptAbgabedaten/StructureDefinition/DAV-EX-ERP-MwStSatz">
                            <valueDecimal value="0.00"/>
                        </extension>
                        <extension url="http://fhir.abda.de/eRezeptAbgabedaten/StructureDefinition/DAV-EX-ERP-KostenVersicherter">
                            <extension url="Kategorie">
                                <valueCodeableConcept>
                                    <coding>
                                        <system value="http://fhir.abda.de/eRezeptAbgabedaten/CodeSystem/DAV-CS-ERP-KostenVersicherterKategorie"/>
                                        <code value="0"/>
                                    </coding>
                                </valueCodeableConcept>
                            </extension>
                            <extension url="Kostenbetrag">
                                <valueMoney>
                                    <value value="0.00"/>
                                    <currency value="EUR"/>
                                </valueMoney>
                            </extension>
                        </extension>
                        <type value="informational"/>
                        <factor value="123"/>
                        <amount>
                            <value value="0.00"/>
                            <currency value="EUR"/>
                        </amount>
                    </priceComponent>
                </lineItem>
                <totalGross>
                    <extension url="http://fhir.abda.de/eRezeptAbgabedaten/StructureDefinition/DAV-EX-ERP-Gesamtzuzahlung">
                        <valueMoney>
                            <value value="0.00"/>
                            <currency value="EUR"/>
                        </valueMoney>
                    </extension>
                    <value value="0.00"/>
                    <currency value="EUR"/>
                </totalGross>
            </Invoice>
        </resource>
    </entry>
</Bundle>